accelx,accely,accelz,gravityx,gravityy,gravityz,linaccelx,linaccely,linaccelz,gyrx,gyry,gyrz,magx,magy,magz,orientazimuth,orientpitch,orientroll,pressure,sound,timestamp,datestamp
-2.5387,-0.7664,11.0195,6.97,-1.17,6.8,-0.24,-0.03,-0.32,-0.1278,-0.017,-0.5955,-87.87,50.13,67.63,189.47,-59.15,58.27,1036.56,55.861,2,2016-03-14 09:57:54:494
-2.1914,1.4897,9.2256,-2.01,4.4,8.53,-0.18,-2.72,0.93,-0.0032,-0.0895,-0.1555,-85.69,53.06,69.19,82.99,-26.64,13.45,1036.6,55.861,502,2016-03-14 09:57:54:994
-2.1196,2.5363,9.1633,-2.07,4.34,8.55,-0.06,-1.81,0.62,-0.0053,0.0053,-0.0075,-86.06,53.75,69.19,82.63,-26.86,13.69,1036.6,55.861,1003,2016-03-14 09:57:55:495
-2.1938,2.4477,9.2927,-2.12,3.99,8.7,-0.12,-1.51,0.58,-0.0011,-0.0149,-0.0053,-85.69,54.5,69.19,77.69,-24.02,13.69,1036.57,54.976,1503,2016-03-14 09:57:55:995
-1.1424,2.1388,9.4268,-2.08,3.63,8.87,0.31,-1.27,0.61,0.0863,0.0256,-0.1609,-85.69,54.5,68.44,74.28,-21.79,13.27,1036.57,55.581,2002,2016-03-14 09:57:56:494
-2.2992,2.122,10.0711,-2.15,3.13,9.04,0.28,-0.97,-0.9,-0.0501,0.0639,-0.0202,-84.62,57.38,68.0,68.32,-18.62,13.38,1036.57,62.091,2502,2016-03-14 09:57:56:994
-3.3698,2.7926,9.1849,-2.12,3.32,8.98,-1.52,-0.64,0.06,-0.13,-0.1214,2.0741,-88.25,52.31,69.19,74.51,-19.79,13.28,1036.56,69.396,3002,2016-03-14 09:57:57:494
-1.2454,3.1926,9.4076,-1.05,4.0,8.89,-0.25,-0.67,-1.13,-0.0309,0.0224,-0.0149,-91.5,46.88,69.63,81.96,-23.31,6.25,1036.57,63.908,3502,2016-03-14 09:57:57:994
-2.007,2.4094,11.3452,-1.05,3.24,9.19,-0.78,-0.88,1.95,-0.0405,-0.3185,0.3505,-91.87,49.06,70.81,80.37,-22.35,7.79,1036.57,68.135,4003,2016-03-14 09:57:58:495
-0.115,3.1902,5.9947,-0.31,3.68,9.08,-0.36,-0.7,1.76,-0.5635,-0.2695,-0.016,-96.62,47.94,68.81,79.54,-21.74,1.95,1036.56,70.522,4502,2016-03-14 09:57:58:994
-0.4982,2.8118,8.8352,-0.12,3.13,9.29,0.07,-0.47,0.16,-0.0117,0.1246,-0.0522,-96.94,49.06,68.0,75.8,-18.62,0.74,1036.56,62.235,5002,2016-03-14 09:57:59:494
-0.3808,2.7279,9.422,-0.45,2.93,9.35,0.1,-0.2,-0.14,0.0202,0.0426,-0.0128,-95.12,49.06,68.0,75.11,-17.69,2.82,1036.58,60.981,5502,2016-03-14 09:57:59:994
-0.5437,2.5842,9.5825,-0.54,2.86,9.37,0.02,-0.18,0.04,-0.0213,-0.016,-0.0075,-94.75,48.31,67.63,74.9,-16.95,3.3,1036.58,60.679,6003,2016-03-14 09:58:00:495
-0.4095,2.6417,9.3765,-0.48,2.77,9.4,-0.25,-0.05,0.05,0.0021,-0.0629,-0.1236,-95.12,49.06,68.38,73.87,-16.41,2.99,1036.6,55.856,6502,2016-03-14 09:58:00:994
-0.5413,2.6034,9.5825,-0.56,2.74,9.4,0.0,-0.16,-0.03,-0.0032,0.0075,-0.0128,-95.5,48.69,68.0,73.83,-16.35,3.23,1036.57,54.188,7002,2016-03-14 09:58:01:494
-0.661,2.5818,9.3717,-0.65,2.68,9.41,-0.04,-0.06,0.05,-0.0053,-0.0032,-0.0107,-94.06,48.31,67.19,73.62,-15.8,4.07,1036.58,56.265,7502,2016-03-14 09:58:01:994
-0.6658,2.7088,9.5705,-0.65,2.68,9.41,-0.05,0.01,0.08,0.0,-0.0021,-0.0096,-94.06,49.44,69.19,73.39,-15.86,3.95,1036.6,54.32,8003,2016-03-14 09:58:02:495
-0.7209,2.6633,9.3645,-0.68,2.73,9.39,-0.08,-0.04,-0.02,0.0053,-0.0266,-0.0064,-94.44,49.06,68.0,73.52,-16.17,4.14,1036.58,53.561,8503,2016-03-14 09:58:02:995
-0.661,2.6465,9.5322,-0.62,2.67,9.42,-0.02,-0.04,-0.02,-0.0298,0.0032,-0.0213,-93.69,49.44,66.81,73.03,-15.79,3.77,1036.57,57.084,9002,2016-03-14 09:58:03:494
-0.788,2.5507,9.5442,-0.64,2.63,9.43,-0.12,-0.03,0.12,-0.0043,-0.0043,-0.0117,-93.69,50.13,66.38,72.12,-15.55,3.82,1036.54,53.518,9502,2016-03-14 09:58:03:994
-0.7449,2.6034,9.6902,-0.71,2.57,9.44,-0.02,-0.06,-0.21,0.0202,-0.0352,-0.0085,-94.06,49.44,68.0,72.77,-15.32,4.31,1036.53,57.886,10003,2016-03-14 09:58:04:495
-0.3114,2.7998,9.3023,-0.37,2.83,9.38,-0.02,-0.08,-0.12,0.0831,-0.0714,-0.0032,-95.5,48.31,67.19,74.52,-16.78,2.26,1036.47,58.411,10503,2016-03-14 09:58:04:995
-0.5365,2.5148,9.3789,-0.55,2.63,9.43,0.02,-0.04,0.02,-0.0352,0.0192,-0.0181,-95.5,50.13,67.19,72.46,-15.56,3.34,1036.43,55.246,11002,2016-03-14 09:58:05:494
-0.4958,2.5339,9.446,-0.69,2.58,9.44,0.09,0.13,0.2,-0.0043,-0.0341,-0.0128,-94.75,50.13,67.19,72.2,-15.25,4.18,1036.4,53.432,11502,2016-03-14 09:58:05:994
-0.7185,2.6058,9.6088,-0.68,2.55,9.44,0.04,0.03,0.2,0.0096,-0.0021,-0.016,-95.12,50.88,68.0,71.64,-15.08,4.12,1036.39,54.357,12002,2016-03-14 09:58:06:494
-0.6802,2.7279,9.6543,-0.68,2.63,9.42,-0.05,0.06,0.08,0.0043,-0.032,-0.0064,-94.75,49.44,68.38,72.45,-15.38,4.18,1036.4,59.325,12502,2016-03-14 09:58:06:994
-0.6946,2.3375,9.2807,-0.68,2.59,9.43,-0.04,-0.22,-0.17,-0.0181,-0.0224,-0.0107,-95.12,50.13,68.38,72.56,-15.5,4.19,1036.4,51.489,13002,2016-03-14 09:58:07:494
-0.5341,2.522,9.1586,-0.65,2.61,9.43,0.02,0.01,0.09,-0.0415,-0.0085,-0.0128,-95.12,50.13,69.19,71.8,-15.49,4.0,1036.4,55.897,13503,2016-03-14 09:58:07:995
-0.6299,2.51,9.4028,-0.66,2.56,9.44,-0.04,-0.07,0.26,-0.0064,-0.0373,-0.0107,-95.12,50.13,67.56,71.93,-15.25,3.94,1036.38,58.367,14002,2016-03-14 09:58:08:494
-0.7736,2.4453,9.4555,-0.63,2.54,9.45,-0.04,-0.04,0.12,0.0064,0.0032,-0.0138,-94.75,50.13,67.94,72.14,-15.01,3.81,1036.39,54.044,14502,2016-03-14 09:58:08:994
-0.7496,2.5507,9.616,-0.65,2.52,9.46,-0.06,0.04,0.16,0.0,-0.0043,-0.0138,-94.44,50.88,66.75,71.14,-14.88,3.93,1036.39,55.396,15002,2016-03-14 09:58:09:494
-0.6898,2.613,9.6447,-0.64,2.51,9.46,0.07,-0.04,-0.04,0.0043,-0.0021,-0.0138,-94.44,49.75,67.19,71.65,-14.83,3.87,1036.41,49.66,15504,2016-03-14 09:58:09:996
-0.661,2.5124,9.3047,-0.64,2.51,9.46,-0.02,0.0,-0.22,0.0107,-0.0138,-0.0149,-94.44,51.25,66.38,70.96,-14.83,3.87,1036.41,48.181,16002,2016-03-14 09:58:10:494
-0.5485,2.4501,9.1945,-0.62,2.52,9.46,-0.02,0.0,0.0,0.0117,0.0107,-0.017,-93.69,51.56,66.75,70.59,-14.89,3.75,1036.4,54.13,16502,2016-03-14 09:58:10:994
-0.6299,2.5842,9.4412,-0.63,2.5,9.46,-0.07,0.09,0.18,-0.0064,0.0032,-0.0234,-94.06,50.88,66.38,70.92,-14.77,3.81,1036.4,52.235,17002,2016-03-14 09:58:11:494
-0.6371,2.5267,9.4292,-0.62,2.52,9.46,-0.05,0.13,0.16,-0.0075,-0.0085,-0.0202,-93.31,51.94,65.94,70.25,-14.89,3.75,1036.4,49.202,17502,2016-03-14 09:58:11:994
-0.6371,2.5699,9.5561,-0.59,2.52,9.46,-0.06,0.05,0.23,-0.0085,-0.0224,-0.0213,-93.69,52.69,66.75,70.05,-14.89,3.63,1036.39,51.961,18002,2016-03-14 09:58:12:494
-0.685,2.5651,9.3526,-0.59,2.58,9.44,-0.09,0.0,-0.07,0.0021,-0.0011,-0.0256,-93.69,51.94,65.19,70.63,-15.26,3.52,1036.39,56.691,18503,2016-03-14 09:58:12:995
-0.6467,2.5794,9.41,-0.61,2.55,9.45,-0.02,0.04,-0.03,-0.0085,0.0032,-0.0245,-93.69,51.94,65.19,70.53,-15.13,3.69,1036.39,51.659,19002,2016-03-14 09:58:13:494
-0.685,2.4765,9.4028,-0.63,2.55,9.45,-0.06,0.04,0.09,0.0043,-0.0107,-0.0224,-92.94,53.44,66.38,69.84,-15.07,3.81,1036.41,57.132,19502,2016-03-14 09:58:13:994
-0.5532,2.5363,9.4651,-0.62,2.54,9.45,0.07,-0.01,0.03,-0.0021,0.0,-0.0245,-93.69,53.44,66.38,70.02,-15.01,3.75,1036.43,51.705,20002,2016-03-14 09:58:14:494
-0.6922,2.6225,9.5202,-0.63,2.54,9.45,-0.07,0.04,0.05,0.0011,-0.0032,-0.0256,-93.31,53.75,66.38,69.25,-15.01,3.81,1036.43,50.775,20502,2016-03-14 09:58:14:994
-0.685,2.613,9.4603,-0.65,2.55,9.45,-0.07,0.04,-0.06,-0.0011,-0.0053,-0.0234,-92.25,54.13,68.31,69.33,-15.07,3.87,1036.43,50.201,21002,2016-03-14 09:58:15:494
-0.661,2.6321,9.5681,-0.65,2.57,9.44,-0.01,0.07,0.12,0.0021,-0.0085,-0.0234,-92.56,54.13,68.31,69.62,-15.14,3.94,1036.44,50.049,21502,2016-03-14 09:58:15:994
-0.7137,2.6585,9.5873,-0.66,2.57,9.44,-0.09,0.08,0.1,0.0053,-0.017,-0.0245,-92.56,53.44,66.38,69.94,-15.19,4.0,1036.41,48.334,22002,2016-03-14 09:58:16:494
-0.6898,2.6106,9.4268,-0.65,2.58,9.44,-0.01,0.06,-0.14,-0.0011,-0.0117,-0.0256,-92.25,53.44,67.13,69.91,-15.25,3.94,1036.4,53.28,22502,2016-03-14 09:58:16:994
-0.6754,2.6082,9.4124,-0.66,2.58,9.44,-0.01,0.03,-0.02,0.0032,-0.0107,-0.0277,-92.94,53.44,67.13,70.13,-15.25,3.94,1036.4,49.347,23002,2016-03-14 09:58:17:494
-0.6634,2.6034,9.4052,-0.65,2.59,9.44,-0.04,0.06,0.05,0.0,-0.0128,-0.0298,-92.25,53.06,67.56,70.1,-15.31,3.94,1036.4,51.539,23503,2016-03-14 09:58:17:995
-0.5556,2.7902,9.446,-0.61,2.69,9.41,0.05,0.09,0.03,0.0,-0.0117,-0.0341,-92.94,54.13,67.56,70.29,-15.92,3.77,1036.38,59.601,24003,2016-03-14 09:58:18:495
-0.6874,2.6992,9.4364,-0.62,2.67,9.42,-0.07,0.03,0.02,0.0011,-0.0107,-0.0373,-92.94,54.13,66.38,69.85,-15.74,3.77,1036.38,53.204,24502,2016-03-14 09:58:18:994
-0.6419,2.7112,9.3717,-0.62,2.67,9.42,-0.03,0.06,-0.05,-0.0043,-0.0138,-0.0426,-92.94,54.5,67.56,69.63,-15.79,3.77,1036.36,52.093,25002,2016-03-14 09:58:19:494
-0.7257,2.6225,9.3094,-0.63,2.64,9.42,-0.05,-0.03,-0.06,-0.0107,-0.0107,-0.0458,-92.94,55.56,66.75,68.8,-15.62,3.83,1036.39,53.268,25503,2016-03-14 09:58:19:995
-0.6946,2.6896,9.4699,-0.65,2.63,9.42,-0.04,0.06,0.02,-0.0501,0.017,-0.0437,-92.25,55.25,67.5,69.25,-15.62,3.95,1036.39,55.693,26002,2016-03-14 09:58:20:494
-0.752,2.6657,9.5513,-0.65,2.61,9.43,-0.08,0.02,0.08,0.0011,-0.0128,-0.0479,-92.25,55.56,67.13,68.41,-15.44,3.94,1036.39,56.959,26503,2016-03-14 09:58:20:995
-0.7065,2.6537,9.4579,-0.66,2.62,9.43,-0.05,0.05,-0.01,0.0032,-0.0128,-0.049,-92.56,55.94,66.31,68.5,-15.44,3.94,1036.38,55.128,27003,2016-03-14 09:58:21:495
-0.7209,2.6537,9.3933,-0.66,2.62,9.43,-0.06,0.03,-0.05,0.0021,-0.0149,-0.0501,-92.25,57.06,67.13,67.9,-15.49,4.0,1036.4,58.063,27502,2016-03-14 09:58:21:994
-0.6993,2.5699,9.2017,-0.67,2.61,9.43,-0.07,0.0,-0.17,-0.0021,-0.0138,-0.0501,-92.25,55.94,66.31,68.26,-15.43,4.06,1036.39,57.331,28002,2016-03-14 09:58:22:494
-0.6993,2.6249,9.2855,-0.69,2.6,9.43,-0.11,0.06,-0.04,0.0011,-0.0234,-0.049,-92.25,56.31,64.75,68.12,-15.43,4.18,1036.4,57.247,28502,2016-03-14 09:58:22:994
-0.6874,2.7112,9.5465,-0.69,2.6,9.43,0.0,0.11,0.13,-0.0021,-0.0202,-0.0511,-92.56,57.44,64.75,67.77,-15.38,4.18,1036.38,58.794,29002,2016-03-14 09:58:23:494
-0.7832,2.771,9.6974,-0.7,2.61,9.43,-0.04,0.09,0.1,0.0032,-0.0202,-0.0522,-92.25,57.75,64.38,66.9,-15.43,4.25,1036.38,60.669,29502,2016-03-14 09:58:23:994
-0.6035,2.6417,9.4891,-0.68,2.61,9.43,0.05,0.03,-0.02,0.0021,-0.0117,-0.0554,-92.56,57.44,65.56,67.95,-15.43,4.18,1036.38,61.056,30002,2016-03-14 09:58:24:494
-0.8526,2.6848,9.2136,-0.7,2.63,9.42,-0.11,0.06,-0.09,0.0021,-0.0224,-0.0543,-92.25,59.25,63.13,66.34,-15.56,4.25,1036.38,61.16,30502,2016-03-14 09:58:24:994
-0.7832,2.8165,9.4507,-0.7,2.64,9.42,-0.11,0.14,0.2,0.0,-0.0234,-0.0533,-92.94,58.13,64.31,67.29,-15.61,4.25,1036.38,60.861,31003,2016-03-14 09:58:25:495
-0.6179,2.68,9.41,-0.67,2.65,9.42,0.02,0.05,0.02,-0.0021,-0.0234,-0.0543,-92.94,59.56,63.56,66.29,-15.67,4.07,1036.39,60.652,31502,2016-03-14 09:58:25:994
-0.752,2.6872,9.4891,-0.67,2.64,9.42,-0.08,0.04,0.07,0.0,-0.016,-0.0554,-92.94,59.63,65.13,66.43,-15.68,4.01,1036.39,61.505,32002,2016-03-14 09:58:26:494
-0.7305,2.6657,9.4819,-0.66,2.64,9.42,-0.06,0.02,-0.06,0.0021,-0.0181,-0.0554,-92.94,60.69,63.56,65.73,-15.62,4.01,1036.39,61.021,32503,2016-03-14 09:58:26:995
-0.7233,2.6872,9.4076,-0.65,2.63,9.42,-0.05,0.06,-0.01,0.0011,-0.016,-0.0565,-94.75,60.31,64.75,66.83,-15.56,3.95,1036.4,59.8,33002,2016-03-14 09:58:27:494
-0.7305,2.6728,9.5298,-0.66,2.63,9.43,-0.08,0.07,0.08,0.0,-0.0213,-0.0543,-94.06,61.44,62.38,65.68,-15.55,4.0,1036.4,59.747,33502,2016-03-14 09:58:27:994
-0.6826,2.7447,9.4795,-0.65,2.63,9.42,-0.05,0.12,0.09,0.0021,-0.0224,-0.0554,-93.69,62.13,63.94,65.43,-15.56,3.95,1036.4,59.931,34002,2016-03-14 09:58:28:494
-0.6754,2.7854,9.4771,-0.65,2.65,9.42,-0.02,0.11,0.0,0.0021,-0.016,-0.0575,-94.37,62.5,63.94,65.01,-15.68,3.95,1036.38,59.789,34502,2016-03-14 09:58:28:994
-0.7137,2.6728,9.4316,-0.66,2.65,9.42,-0.05,0.02,0.01,0.0043,-0.0192,-0.0575,-94.75,63.63,63.13,64.64,-15.68,3.95,1036.39,58.143,35002,2016-03-14 09:58:29:494
-0.7401,2.6273,9.446,-0.67,2.63,9.42,-0.06,-0.03,0.06,0.0011,-0.0181,-0.0554,-95.12,63.25,62.31,64.92,-15.56,4.07,1036.41,57.596,35502,2016-03-14 09:58:29:994
-0.7281,2.577,9.3837,-0.68,2.61,9.43,-0.04,-0.03,-0.02,-0.0032,-0.0149,-0.0533,-94.75,63.63,63.5,64.56,-15.43,4.12,1036.43,57.336,36001,2016-03-14 09:58:30:493
-0.6946,2.5459,9.4268,-0.67,2.58,9.44,-0.08,-0.03,0.07,0.0043,-0.0224,-0.0543,-95.12,63.63,62.75,64.31,-15.25,4.06,1036.43,53.192,36502,2016-03-14 09:58:30:994
-0.6131,2.6082,9.5154,-0.64,2.57,9.44,0.03,0.02,0.04,0.0,-0.017,-0.0565,-95.5,65.06,63.13,63.79,-15.2,3.88,1036.43,53.039,37003,2016-03-14 09:58:31:495
-0.5221,2.7471,9.4076,-0.61,2.58,9.44,0.05,0.13,-0.07,0.0,-0.0128,-0.0586,-95.5,64.69,63.94,63.92,-15.2,3.76,1036.43,54.755,37503,2016-03-14 09:58:31:995
-0.7353,2.7854,9.3286,-0.64,2.64,9.42,-0.07,0.15,-0.09,0.0,-0.017,-0.0607,-96.25,66.13,63.13,63.83,-15.55,3.82,1036.39,55.633,38002,2016-03-14 09:58:32:494
-0.843,2.6321,9.4148,-0.67,2.64,9.42,-0.18,0.02,0.07,-0.0021,-0.0149,-0.0607,-95.87,65.06,62.31,64.27,-15.68,4.01,1036.41,56.9,38502,2016-03-14 09:58:32:994
-0.7137,2.5339,9.4555,-0.69,2.61,9.43,-0.03,-0.05,0.07,0.0011,-0.016,-0.0565,-96.25,66.5,63.94,63.33,-15.43,4.18,1036.44,56.167,39003,2016-03-14 09:58:33:495
-0.7377,2.6154,9.4292,-0.7,2.58,9.44,-0.06,0.02,0.08,0.0011,-0.0192,-0.0543,-96.25,66.5,63.94,63.19,-15.25,4.24,1036.45,55.408,39502,2016-03-14 09:58:33:994
-0.7281,2.6561,9.4963,-0.7,2.57,9.44,-0.04,0.08,0.07,0.0043,-0.0192,-0.0565,-96.25,66.5,61.94,62.92,-15.19,4.24,1036.43,56.824,40003,2016-03-14 09:58:34:495
-0.7257,2.5794,9.4963,-0.69,2.58,9.44,0.01,0.03,0.05,0.0021,-0.0181,-0.0575,-96.94,67.63,62.31,62.86,-15.25,4.24,1036.43,59.325,40502,2016-03-14 09:58:34:994
-0.7688,2.589,9.5681,-0.69,2.55,9.44,-0.07,0.04,0.13,-0.0011,-0.0213,-0.0554,-96.56,67.94,61.94,62.63,-15.08,4.18,1036.43,58.199,41004,2016-03-14 09:58:35:496
-0.7065,2.6513,9.537,-0.68,2.54,9.45,0.02,0.05,0.04,0.0021,-0.0192,-0.0543,-97.31,67.25,62.75,63.17,-15.01,4.12,1036.44,58.483,41502,2016-03-14 09:58:35:994
-0.685,2.6968,9.5082,-0.68,2.56,9.44,-0.05,0.1,0.0,0.0011,-0.017,-0.0575,-97.69,68.69,61.13,62.37,-15.14,4.12,1036.44,58.764,42002,2016-03-14 09:58:36:494
-0.7832,2.6034,9.4316,-0.68,2.57,9.44,-0.05,0.04,-0.02,0.0,-0.017,-0.0554,-98.06,69.06,62.31,62.51,-15.19,4.12,1036.44,58.184,42503,2016-03-14 09:58:36:995
-0.7688,2.5507,9.4651,-0.7,2.55,9.44,-0.09,0.03,0.12,-0.0021,-0.0075,-0.0554,-98.06,69.75,61.5,61.95,-15.08,4.24,1036.47,57.884,43002,2016-03-14 09:58:37:494
-0.7209,2.5555,9.5058,-0.7,2.55,9.44,-0.05,0.04,0.02,0.0021,-0.0202,-0.0522,-98.75,69.44,61.13,62.57,-15.08,4.24,1036.48,57.049,43502,2016-03-14 09:58:37:994
-0.7401,2.613,9.4867,-0.69,2.55,9.44,-0.05,0.06,0.04,0.0021,-0.016,-0.0511,-99.87,70.13,62.31,62.48,-15.08,4.18,1036.48,57.454,44002,2016-03-14 09:58:38:494
-0.7664,2.589,9.4939,-0.7,2.55,9.44,-0.03,0.06,-0.04,0.0032,-0.0181,-0.049,-99.5,70.13,61.13,62.11,-15.08,4.24,1036.47,56.832,44503,2016-03-14 09:58:38:995
-0.7712,2.6058,9.4052,-0.71,2.56,9.44,-0.09,0.04,0.0,0.0011,-0.016,-0.0447,-99.5,70.88,61.13,61.69,-15.13,4.3,1036.45,56.813,45002,2016-03-14 09:58:39:494
-0.7449,2.5818,9.4244,-0.71,2.56,9.44,-0.06,0.04,0.03,0.0032,-0.0149,-0.0426,-99.87,70.5,61.94,62.05,-15.13,4.3,1036.47,55.812,45502,2016-03-14 09:58:39:994
-0.7209,2.5914,9.4172,-0.71,2.56,9.44,-0.07,0.03,0.02,0.0011,-0.0149,-0.0437,-99.87,70.88,60.31,61.84,-15.13,4.3,1036.47,56.307,46002,2016-03-14 09:58:40:494
-0.6467,2.5603,9.5226,-0.69,2.55,9.44,0.07,0.03,0.14,0.0011,-0.017,-0.0415,-100.94,70.88,60.31,62.07,-15.08,4.18,1036.47,56.257,46502,2016-03-14 09:58:40:994
-0.8311,2.5315,9.5058,-0.7,2.53,9.45,-0.11,-0.01,0.07,0.0032,-0.0128,-0.0437,-101.69,72.69,59.94,61.36,-14.95,4.18,1036.48,56.538,47003,2016-03-14 09:58:41:495
-0.7185,2.5866,9.4747,-0.69,2.53,9.45,0.02,0.08,0.14,0.0021,-0.0138,-0.0447,-100.94,71.94,61.13,61.64,-14.95,4.18,1036.47,55.44,47502,2016-03-14 09:58:41:994
-0.6706,2.5507,9.4915,-0.68,2.52,9.45,-0.04,0.08,0.16,0.0043,-0.0181,-0.0458,-101.69,72.69,61.5,61.52,-14.89,4.12,1036.44,54.352,48002,2016-03-14 09:58:42:494
-0.788,2.577,9.4531,-0.68,2.54,9.45,-0.08,0.07,-0.02,-0.0011,-0.017,-0.0469,-101.69,72.69,62.31,61.6,-15.01,4.12,1036.45,55.315,48502,2016-03-14 09:58:42:994
-0.7329,2.6249,9.525,-0.68,2.55,9.45,-0.05,0.08,0.08,0.0011,-0.0213,-0.0469,-101.31,72.31,61.5,61.83,-15.06,4.12,1036.45,55.615,49003,2016-03-14 09:58:43:495
-0.7113,2.6824,9.4531,-0.67,2.57,9.44,-0.08,0.13,-0.02,0.0,-0.017,-0.0469,-102.06,73.44,61.13,61.63,-15.19,4.06,1036.45,56.427,49502,2016-03-14 09:58:43:994
-0.7592,2.5555,9.4939,-0.69,2.58,9.44,-0.05,-0.02,0.05,-0.0043,-0.0192,-0.0447,-103.5,73.06,62.31,62.01,-15.25,4.18,1036.43,56.578,50002,2016-03-14 09:58:44:494
-0.7305,2.5315,9.4915,-0.68,2.55,9.45,0.01,-0.01,0.03,0.0011,-0.0181,-0.0458,-102.75,73.06,61.94,61.94,-15.14,4.12,1036.45,56.382,50502,2016-03-14 09:58:44:994
-0.6874,2.5627,9.4555,-0.68,2.54,9.45,-0.05,0.04,0.04,0.0011,-0.0149,-0.0458,-103.5,73.81,61.88,61.42,-15.01,4.12,1036.47,54.358,51002,2016-03-14 09:58:45:494
-0.7209,2.5627,9.4148,-0.66,2.53,9.45,0.0,0.05,0.01,0.0,-0.0128,-0.0479,-103.87,73.44,63.5,62.27,-14.95,4.0,1036.45,54.478,51502,2016-03-14 09:58:45:994
-0.673,2.5579,9.4675,-0.66,2.53,9.45,-0.05,0.01,0.05,0.0,-0.017,-0.049,-103.87,72.69,61.94,62.08,-14.95,4.0,1036.47,53.687,52003,2016-03-14 09:58:46:495
-0.6946,2.5244,9.5058,-0.66,2.52,9.46,-0.05,-0.01,0.05,-0.0011,-0.0149,-0.049,-103.87,72.69,62.31,62.03,-14.88,3.99,1036.48,53.267,52502,2016-03-14 09:58:46:994
-0.7257,2.5244,9.5034,-0.67,2.5,9.46,-0.08,0.03,0.05,0.0,-0.016,-0.0469,-105.31,73.44,62.31,62.19,-14.77,4.05,1036.49,53.726,53003,2016-03-14 09:58:47:495
-0.7185,2.5267,9.5705,-0.67,2.5,9.46,-0.04,0.05,0.07,0.0,-0.016,-0.0469,-104.94,73.44,62.31,62.19,-14.77,4.05,1036.44,57.387,53503,2016-03-14 09:58:47:995
-0.8359,2.5675,9.4819,-0.67,2.49,9.46,-0.1,0.06,0.06,0.0021,-0.0117,-0.0458,-104.25,73.06,61.94,61.91,-14.71,4.05,1036.4,57.714,54002,2016-03-14 09:58:48:494
-0.7856,2.5914,9.4244,-0.7,2.51,9.45,-0.09,0.11,-0.04,-0.0021,-0.0192,-0.0415,-104.56,72.31,61.13,62.17,-14.76,4.23,1036.39,60.292,54503,2016-03-14 09:58:48:995
-0.7401,2.5986,9.4939,-0.69,2.54,9.45,-0.04,0.07,0.03,-0.0011,-0.0149,-0.0394,-106.37,73.06,60.69,62.48,-15.01,4.18,1036.36,56.726,55002,2016-03-14 09:58:49:494
-0.7425,2.4741,9.5489,-0.69,2.52,9.45,-0.06,-0.04,0.09,-0.0011,-0.0149,-0.0362,-106.06,73.06,60.69,62.41,-14.89,4.18,1036.39,53.971,55503,2016-03-14 09:58:49:995
-0.7425,2.5459,9.4771,-0.69,2.5,9.46,-0.07,0.05,0.05,0.0021,-0.0138,-0.0352,-106.75,72.69,60.75,62.56,-14.77,4.17,1036.38,58.161,56003,2016-03-14 09:58:50:495
-0.7161,2.5675,9.5322,-0.69,2.49,9.46,-0.02,0.05,0.09,0.0,-0.0096,-0.033,-107.12,72.69,60.75,62.53,-14.71,4.17,1036.34,63.367,56503,2016-03-14 09:58:50:995
-0.7736,2.5842,9.4579,-0.7,2.5,9.46,-0.08,0.08,0.08,-0.0043,-0.0085,-0.0298,-107.5,73.81,59.5,62.04,-14.76,4.23,1036.35,64.958,57003,2016-03-14 09:58:51:495
-0.7664,2.6489,9.4867,-0.7,2.52,9.45,-0.05,0.12,0.04,0.0021,-0.0075,-0.0245,-107.87,73.81,59.13,62.26,-14.89,4.24,1036.36,64.325,57502,2016-03-14 09:58:51:994
-0.7736,2.5172,9.5849,-0.72,2.52,9.45,-0.07,0.0,-0.04,-0.0021,-0.0021,-0.0202,-107.87,73.44,59.13,62.68,-14.89,4.36,1036.38,63.932,58002,2016-03-14 09:58:52:494
-0.7353,2.4357,9.4867,-0.71,2.5,9.46,-0.05,-0.06,0.06,-0.0011,-0.0043,-0.0181,-109.31,73.81,59.5,62.51,-14.76,4.29,1036.4,61.938,58502,2016-03-14 09:58:52:994
-0.7305,2.5172,9.4795,-0.71,2.48,9.46,-0.04,0.03,0.05,-0.0021,-0.0075,-0.0149,-108.25,74.13,59.13,62.11,-14.65,4.29,1036.4,56.738,59003,2016-03-14 09:58:53:495
-0.7568,2.5699,9.4268,-0.71,2.48,9.46,-0.05,0.09,0.04,-0.0043,-0.0053,-0.0117,-108.25,74.13,60.31,62.2,-14.65,4.29,1036.35,56.104,59502,2016-03-14 09:58:53:994
-0.7568,2.6202,9.4843,-0.71,2.5,9.46,-0.03,0.1,0.1,0.0021,-0.0075,-0.0053,-108.56,74.88,59.94,62.09,-14.76,4.29,1036.35,59.752,60002,2016-03-14 09:58:54:494
-0.7568,2.6249,9.6831,-0.71,2.52,9.45,-0.05,0.07,0.18,0.0181,-0.0138,-0.0011,-108.94,74.13,59.5,62.59,-14.89,4.3,1036.38,61.64,60502,2016-03-14 09:58:54:994
-0.7089,2.6202,9.4507,-0.7,2.56,9.44,0.0,0.03,-0.01,0.0011,0.0021,-0.0011,-108.94,74.88,59.13,62.23,-15.13,4.24,1036.39,63.693,61002,2016-03-14 09:58:55:494
-0.7017,2.5651,9.4364,-0.68,2.57,9.44,0.02,0.02,0.08,-0.0043,-0.0064,0.0064,-108.56,74.13,59.94,62.79,-15.19,4.12,1036.32,61.709,61503,2016-03-14 09:58:55:995
-0.7089,2.4573,9.3478,-0.71,2.51,9.45,-0.04,-0.05,0.18,0.0192,-0.0075,0.0107,-108.56,75.25,60.69,62.23,-14.83,4.3,1036.28,59.85,62003,2016-03-14 09:58:56:495
-0.6538,2.5076,9.5489,-0.69,2.54,9.45,0.01,-0.03,0.04,-0.0075,0.0043,0.0181,-107.87,74.5,59.94,62.02,-15.01,4.18,1036.26,57.191,62502,2016-03-14 09:58:56:994
-0.6706,2.4333,9.5489,-0.68,2.5,9.46,0.03,-0.07,0.02,0.0,0.0075,0.0192,-107.5,74.88,61.13,61.72,-14.77,4.11,1036.26,59.291,63003,2016-03-14 09:58:57:495
-0.5844,2.5196,9.5394,-0.66,2.49,9.46,0.02,-0.01,0.04,-0.0043,0.0021,0.0192,-108.25,74.88,61.5,62.03,-14.71,3.99,1036.35,56.104,63502,2016-03-14 09:58:57:994
-0.5724,2.522,9.501,-0.61,2.5,9.46,0.05,0.04,0.04,0.0,0.0053,0.0181,-107.87,74.88,60.69,62.47,-14.72,3.75,1036.26,59.806,64003,2016-03-14 09:58:58:495
-0.6035,2.5172,9.501,-0.62,2.51,9.46,-0.02,0.01,-0.02,-0.0021,0.0043,0.016,-107.5,73.81,61.88,62.31,-14.83,3.75,1036.22,63.517,64503,2016-03-14 09:58:58:995
-0.5868,2.5435,9.501,-0.61,2.52,9.46,0.01,0.02,0.01,-0.0011,0.0032,0.0192,-107.87,73.44,62.31,62.58,-14.89,3.69,1036.25,64.087,65002,2016-03-14 09:58:59:494
-0.6275,2.5627,9.4579,-0.6,2.53,9.45,0.01,0.06,0.03,0.0011,0.0053,0.0181,-107.87,72.69,61.13,62.52,-14.94,3.69,1036.26,61.226,65503,2016-03-14 09:58:59:995
-0.5892,2.6321,9.4292,-0.59,2.55,9.45,0.03,0.11,0.04,-0.0011,0.0011,0.0202,-107.87,73.44,61.13,62.99,-15.02,3.63,1036.23,59.171,66003,2016-03-14 09:59:00:495
-0.7137,2.5842,9.4986,-0.6,2.57,9.45,-0.11,0.02,0.07,0.0011,0.0053,0.0192,-107.5,73.06,59.88,62.74,-15.13,3.63,1036.31,56.339,66505,2016-03-14 09:59:00:997
-0.6179,2.6249,9.5418,-0.61,2.57,9.44,-0.02,0.04,0.06,0.0011,0.0021,0.0224,-107.5,73.44,61.13,62.88,-15.2,3.7,1036.25,58.484,67003,2016-03-14 09:59:01:495
-0.5988,2.6728,9.4436,-0.6,2.59,9.44,0.05,0.06,0.02,0.0043,0.0053,0.0234,-106.75,73.44,59.88,62.85,-15.31,3.64,1036.15,60.321,67503,2016-03-14 09:59:01:995
-0.6107,2.6441,9.4795,-0.6,2.61,9.43,0.02,0.03,0.07,0.0011,0.0032,0.0224,-106.37,73.44,59.5,62.7,-15.44,3.64,1036.12,62.589,68002,2016-03-14 09:59:02:494
-0.6275,2.7351,9.5106,-0.6,2.62,9.43,-0.03,0.03,0.08,-0.0021,0.0064,0.0234,-106.06,73.44,59.5,62.74,-15.5,3.64,1035.99,61.351,68503,2016-03-14 09:59:02:995
-0.4838,2.5914,9.4747,-0.58,2.62,9.43,0.1,-0.03,0.04,-0.0011,0.0064,0.0192,-105.31,73.81,59.13,62.35,-15.55,3.58,1035.99,62.668,69003,2016-03-14 09:59:03:495
-0.7329,2.6393,9.41,-0.6,2.62,9.43,-0.1,0.05,0.02,0.0,0.0053,0.0213,-105.31,74.13,61.13,62.18,-15.5,3.58,1036.05,59.654,69502,2016-03-14 09:59:03:994
-0.5149,2.7231,9.5968,-0.6,2.63,9.43,0.08,0.07,0.12,-0.0053,0.0053,0.0181,-104.25,73.44,58.69,62.19,-15.55,3.64,1036.15,59.315,70002,2016-03-14 09:59:04:494
-0.7856,2.6297,9.4771,-0.61,2.62,9.43,-0.18,-0.02,0.02,-0.0021,0.0011,0.0234,-105.31,73.44,60.31,62.07,-15.5,3.7,1036.15,58.392,70503,2016-03-14 09:59:04:995
-0.5293,2.51,9.307,-0.61,2.63,9.43,0.07,-0.12,-0.15,-0.0085,0.0032,0.0224,-104.56,73.06,59.13,62.46,-15.61,3.76,1036.13,57.955,71003,2016-03-14 09:59:05:495
-0.6227,2.613,9.2112,-0.59,2.62,9.43,-0.05,0.06,0.11,0.0011,0.0064,0.0181,-104.25,73.06,58.69,62.16,-15.5,3.58,1036.18,60.236,71502,2016-03-14 09:59:05:994
-0.6443,2.7136,9.4316,-0.6,2.65,9.42,-0.03,0.12,0.1,-0.0053,0.0021,0.0149,-104.56,73.44,60.69,62.73,-15.68,3.64,1036.13,62.681,72002,2016-03-14 09:59:06:494
-0.4742,2.7447,9.7262,-0.57,2.65,9.42,0.1,0.09,0.3,0.0032,0.0011,0.0053,-102.75,73.81,60.25,61.71,-15.67,3.46,1036.1,60.601,72503,2016-03-14 09:59:06:995
-0.6514,2.51,9.4867,-0.57,2.63,9.43,-0.07,-0.11,0.1,-0.0011,0.0053,0.0043,-103.5,74.13,59.88,61.67,-15.61,3.46,1036.14,67.447,73002,2016-03-14 09:59:07:494
-0.5652,2.4956,9.4484,-0.56,2.6,9.44,0.03,-0.12,-0.14,0.0053,0.0,0.0021,-103.5,73.81,60.31,61.52,-15.37,3.39,1036.15,67.39,73503,2016-03-14 09:59:07:995
-0.6059,2.4286,9.2544,-0.55,2.58,9.45,-0.05,-0.14,-0.19,-0.0011,-0.0021,-0.0043,-103.87,74.5,60.69,61.44,-15.26,3.39,1036.17,65.573,74002,2016-03-14 09:59:08:494
-0.6826,2.5866,9.4675,-0.58,2.56,9.45,-0.14,-0.01,0.2,0.0021,-0.0096,-0.0021,-103.87,73.81,60.31,60.97,-15.19,3.45,1036.04,65.926,74503,2016-03-14 09:59:08:995
-0.6371,2.6058,9.5753,-0.58,2.57,9.45,-0.05,0.07,0.15,0.0021,-0.0043,-0.0053,-104.56,74.88,61.06,61.51,-15.13,3.57,1036.08,62.944,75003,2016-03-14 09:59:09:495
-0.5892,2.6489,9.5322,-0.58,2.58,9.44,-0.01,0.07,0.08,0.0032,-0.0011,-0.0064,-104.25,74.13,62.25,61.88,-15.24,3.45,1036.19,63.059,75503,2016-03-14 09:59:09:995
-0.673,2.5962,9.4052,-0.59,2.58,9.44,-0.08,0.01,-0.05,0.0,-0.0032,-0.0053,-104.25,74.88,60.31,61.78,-15.26,3.52,1036.22,64.473,76003,2016-03-14 09:59:10:495
-0.6658,2.6154,9.422,-0.6,2.59,9.44,-0.07,0.03,0.03,0.0,-0.0021,-0.0043,-104.94,74.13,61.5,62.16,-15.31,3.64,1036.28,59.562,76502,2016-03-14 09:59:10:994
-0.6035,2.6297,9.4172,-0.6,2.61,9.43,0.0,0.02,-0.02,0.0011,-0.0043,-0.0053,-104.94,74.13,63.06,62.34,-15.44,3.64,1036.28,58.258,77003,2016-03-14 09:59:11:495
-0.697,2.7255,9.4268,-0.6,2.62,9.43,-0.06,0.1,0.09,-0.0011,-0.0043,-0.0053,-104.25,73.81,63.06,62.14,-15.5,3.64,1036.23,56.065,77502,2016-03-14 09:59:11:994
-0.6275,2.7207,9.5034,-0.61,2.64,9.43,-0.04,0.07,0.04,-0.0011,-0.0021,-0.0032,-104.56,74.5,61.88,61.92,-15.61,3.7,1036.22,56.005,78002,2016-03-14 09:59:12:494
-0.594,2.7926,9.4963,-0.6,2.65,9.42,0.01,0.08,0.01,0.0011,-0.0053,-0.0043,-105.69,74.13,63.88,62.81,-15.63,3.64,1036.22,55.04,78503,2016-03-14 09:59:12:995
-0.7449,2.7591,9.3549,-0.61,2.67,9.42,-0.08,0.06,-0.12,-0.0021,-0.0011,-0.0043,-105.31,72.69,63.06,63.01,-15.79,3.71,1036.25,55.086,79003,2016-03-14 09:59:13:495
-0.582,2.704,9.4124,-0.62,2.67,9.41,0.04,0.02,-0.01,0.0011,-0.0032,-0.0011,-105.69,72.69,63.44,63.25,-15.81,3.77,1036.3,56.796,79502,2016-03-14 09:59:13:994
-0.6826,2.7231,9.4484,-0.61,2.7,9.41,-0.07,0.02,0.04,0.0021,-0.0043,-0.0021,-104.94,71.63,63.44,63.58,-15.98,3.71,1036.28,56.479,80002,2016-03-14 09:59:14:494
-0.6155,2.7303,9.4196,-0.62,2.7,9.41,0.01,0.05,0.06,-0.0043,-0.0021,0.0,-105.31,72.69,62.25,63.03,-15.98,3.77,1036.23,53.787,80502,2016-03-14 09:59:14:994
-0.582,2.7112,9.4675,-0.6,2.7,9.41,0.01,0.01,0.08,0.0011,-0.0032,0.0,-105.31,73.06,62.25,63.03,-15.98,3.71,1036.23,55.976,81002,2016-03-14 09:59:15:494
-0.673,2.7016,9.3909,-0.61,2.71,9.41,-0.05,0.02,-0.02,-0.0032,0.0021,-0.0011,-105.69,71.63,62.25,63.74,-16.03,3.71,1036.25,55.483,81502,2016-03-14 09:59:15:994
-0.5964,2.7136,9.4579,-0.61,2.7,9.41,0.02,0.02,0.06,0.0021,0.0,0.0021,-104.94,71.63,61.5,63.47,-15.98,3.71,1036.23,56.179,82003,2016-03-14 09:59:16:495
-0.6514,2.7351,9.4388,-0.6,2.72,9.4,-0.05,0.02,0.02,-0.0021,0.0011,0.0,-105.69,70.5,61.06,64.11,-16.11,3.65,1036.23,55.617,82503,2016-03-14 09:59:16:995
-0.6538,2.7303,9.4412,-0.61,2.72,9.4,-0.04,0.01,0.04,0.0021,-0.0075,0.0021,-105.69,71.63,61.44,63.67,-16.11,3.71,1036.21,56.679,83002,2016-03-14 09:59:17:494
-0.6179,2.7183,9.4388,-0.6,2.72,9.4,0.0,0.0,0.03,0.0032,-0.0011,-0.0021,-106.06,72.0,59.88,63.57,-16.11,3.65,1036.3,56.349,83503,2016-03-14 09:59:17:995
-0.6706,2.7088,9.41,-0.61,2.72,9.4,-0.07,-0.01,-0.01,0.0043,0.0053,-0.0021,-104.94,72.0,60.69,63.44,-16.11,3.71,1036.32,55.79,84003,2016-03-14 09:59:18:495
-0.6059,2.7064,9.5154,-0.6,2.7,9.41,0.01,0.0,0.0,-0.0021,0.0053,-0.0021,-106.37,71.25,59.88,63.92,-15.98,3.65,1036.27,57.023,84502,2016-03-14 09:59:18:994
-0.6754,2.7064,9.4963,-0.6,2.7,9.41,-0.04,-0.01,0.06,0.0011,-0.0043,-0.0011,-105.31,72.69,60.25,62.82,-15.98,3.65,1036.21,55.579,85002,2016-03-14 09:59:19:494
-0.6035,2.6992,9.446,-0.6,2.7,9.41,-0.03,-0.01,0.06,-0.0053,-0.0011,0.0,-106.06,71.63,61.06,63.59,-15.98,3.65,1036.26,55.331,85503,2016-03-14 09:59:19:995
-0.6299,2.589,9.4627,-0.6,2.68,9.42,0.0,-0.08,0.05,0.0,-0.0021,0.0,-106.06,72.0,61.06,63.32,-15.92,3.65,1036.22,54.48,86003,2016-03-14 09:59:20:495
-0.6347,2.5387,9.5298,-0.6,2.63,9.43,-0.07,-0.1,0.06,0.0,-0.0064,-0.0011,-106.06,72.69,59.5,63.67,-15.61,3.64,1036.3,54.739,86503,2016-03-14 09:59:20:995
-0.594,2.6082,9.4124,-0.6,2.62,9.43,-0.01,0.02,0.05,-0.0011,-0.0011,-0.0011,-106.37,72.69,59.44,62.63,-15.5,3.64,1036.31,53.577,87002,2016-03-14 09:59:21:494
-0.6395,2.601,9.5561,-0.6,2.62,9.43,-0.06,0.0,0.04,0.0,-0.0043,0.0,-105.69,71.25,61.06,63.38,-15.5,3.64,1036.32,52.975,87502,2016-03-14 09:59:21:994
-0.6179,2.5723,9.4723,-0.61,2.6,9.44,-0.01,-0.04,0.07,0.0,-0.0011,0.0,-106.06,71.63,59.88,63.08,-15.37,3.7,1036.28,52.586,88002,2016-03-14 09:59:22:494
-0.6658,2.5914,9.4843,-0.6,2.59,9.44,-0.02,0.01,0.05,-0.0011,-0.0011,0.0,-106.06,72.0,61.06,63.15,-15.31,3.64,1036.31,52.29,88503,2016-03-14 09:59:22:995
-0.6395,2.5914,9.501,-0.61,2.58,9.44,-0.03,0.01,0.06,-0.0011,-0.0032,0.0,-105.69,72.69,59.88,62.58,-15.26,3.7,1036.31,54.076,89002,2016-03-14 09:59:23:494
-0.6347,2.5842,9.4579,-0.6,2.58,9.44,-0.01,0.0,0.03,-0.0043,-0.0021,0.0,-105.31,72.69,59.88,62.34,-15.26,3.64,1036.3,53.563,89502,2016-03-14 09:59:23:994
-0.6467,2.5866,9.4771,-0.6,2.58,9.44,-0.04,0.02,0.02,0.0011,0.0,0.0011,-105.31,71.63,60.25,62.78,-15.26,3.64,1036.32,53.768,90002,2016-03-14 09:59:24:494
-0.6323,2.5842,9.5082,-0.6,2.58,9.44,0.0,0.0,0.05,-0.0011,-0.0011,-0.0011,-105.31,72.0,62.63,63.09,-15.26,3.64,1036.26,54.233,90503,2016-03-14 09:59:24:995
-0.6323,2.6106,9.4843,-0.6,2.58,9.44,-0.05,0.0,0.03,-0.0011,-0.0021,-0.0011,-105.31,72.31,61.06,62.88,-15.26,3.64,1036.27,53.529,91002,2016-03-14 09:59:25:494
-0.5964,2.5962,9.4843,-0.6,2.58,9.44,-0.04,0.03,0.07,-0.0032,-0.0011,0.0,-105.31,72.0,61.06,62.88,-15.26,3.64,1036.32,53.754,91503,2016-03-14 09:59:25:995
-0.6275,2.5866,9.4747,-0.6,2.58,9.44,-0.04,0.01,0.04,-0.0011,-0.0011,-0.0011,-106.06,72.69,60.69,62.68,-15.26,3.64,1036.32,52.374,92003,2016-03-14 09:59:26:495
-0.6467,2.5579,9.4651,-0.6,2.58,9.44,-0.02,0.0,0.01,-0.0011,-0.0011,-0.0021,-106.06,72.0,61.06,63.11,-15.26,3.64,1036.35,53.113,92503,2016-03-14 09:59:26:995
-0.6251,2.5938,9.4843,-0.61,2.58,9.44,-0.03,0.0,0.06,-0.0021,0.0,-0.0021,-105.69,71.63,61.06,63.11,-15.26,3.7,1036.32,52.414,93002,2016-03-14 09:59:27:494
-0.6491,2.601,9.4771,-0.61,2.58,9.44,-0.03,0.01,0.04,0.0011,-0.0043,0.0,-105.31,71.63,61.06,62.87,-15.26,3.7,1036.35,54.07,93502,2016-03-14 09:59:27:994
-0.6203,2.601,9.4915,-0.6,2.58,9.44,-0.01,0.03,0.02,-0.0011,0.0,-0.0011,-106.06,72.0,61.44,63.11,-15.26,3.64,1036.32,50.796,94002,2016-03-14 09:59:28:494
-0.6275,2.5842,9.4364,-0.61,2.58,9.44,-0.05,0.02,0.02,0.0,0.0,-0.0011,-105.69,72.31,60.63,63.11,-15.26,3.7,1036.35,53.087,94502,2016-03-14 09:59:28:994
-0.6323,2.5986,9.4675,-0.6,2.58,9.44,-0.03,0.03,0.01,-0.0011,-0.0032,0.0,-105.69,72.31,61.06,62.84,-15.2,3.64,1036.27,51.726,95002,2016-03-14 09:59:29:494
-0.6251,2.5914,9.4627,-0.6,2.57,9.44,-0.03,0.0,0.06,-0.0021,-0.0053,0.0,-105.31,72.31,60.63,62.84,-15.2,3.64,1036.26,51.939,95502,2016-03-14 09:59:29:994
-0.6371,2.5842,9.5082,-0.61,2.57,9.44,-0.03,0.01,0.05,0.0,-0.0021,-0.0021,-105.31,72.0,61.44,62.84,-15.2,3.7,1036.19,52.819,96002,2016-03-14 09:59:30:494
-0.6491,2.6034,9.5082,-0.61,2.57,9.44,-0.03,0.04,0.07,0.0011,-0.0021,-0.0021,-105.69,71.63,61.44,63.07,-15.2,3.7,1036.22,52.299,96502,2016-03-14 09:59:30:994
-0.6395,2.5914,9.5058,-0.61,2.57,9.44,-0.01,0.02,0.05,-0.0021,0.0,-0.0021,-106.37,72.69,61.44,62.64,-15.2,3.7,1036.3,52.718,97005,2016-03-14 09:59:31:497
-0.6371,2.5555,9.4747,-0.61,2.57,9.44,-0.03,-0.01,0.03,-0.0011,-0.0021,-0.0021,-105.31,71.25,60.69,63.27,-15.2,3.7,1036.28,54.387,97504,2016-03-14 09:59:31:996
-0.6131,2.5962,9.4436,-0.6,2.58,9.44,-0.02,0.03,0.0,-0.0011,-0.0011,-0.0011,-105.31,71.63,60.25,63.07,-15.2,3.7,1036.28,53.081,98002,2016-03-14 09:59:32:494
-0.6347,2.6154,9.5058,-0.6,2.58,9.44,-0.04,0.02,0.02,-0.0043,-0.0043,0.0,-105.31,72.0,60.63,62.88,-15.26,3.64,1036.32,52.249,98503,2016-03-14 09:59:32:995
-0.6083,2.5675,9.4076,-0.6,2.59,9.44,-0.08,0.01,0.14,-0.0011,0.0043,-0.0011,-105.69,72.31,59.88,63.05,-15.31,3.64,1036.36,55.426,99002,2016-03-14 09:59:33:494
-0.6371,2.5962,9.446,-0.6,2.58,9.44,-0.02,0.01,0.05,0.0011,-0.0032,-0.0011,-105.69,72.0,61.88,63.22,-15.26,3.64,1036.39,54.673,99503,2016-03-14 09:59:33:995
-0.6203,2.5938,9.4915,-0.6,2.57,9.44,-0.03,-0.01,0.02,-0.0011,-0.0021,-0.0011,-105.69,72.0,61.06,63.08,-15.2,3.64,1036.45,52.583,100002,2016-03-14 09:59:34:494
-0.6203,2.6034,9.4843,-0.6,2.57,9.44,-0.02,0.02,0.04,0.0,-0.0021,0.0011,-105.69,73.06,60.25,62.55,-15.2,3.64,1036.44,51.431,100502,2016-03-14 09:59:34:994
-0.6155,2.5866,9.4747,-0.6,2.57,9.44,-0.02,0.02,0.07,0.0011,-0.0011,0.0,-105.31,71.63,60.25,62.74,-15.2,3.64,1036.48,52.584,101002,2016-03-14 09:59:35:494
-0.6395,2.5818,9.4531,-0.6,2.57,9.44,-0.01,0.01,0.02,-0.0011,-0.0011,0.0,-105.31,72.0,61.44,62.84,-15.2,3.64,1036.4,53.15,101503,2016-03-14 09:59:35:995
-0.6299,2.6249,9.4268,-0.6,2.58,9.44,-0.02,0.03,0.01,0.0021,0.0,0.0,-105.69,72.0,61.88,63.18,-15.2,3.64,1036.47,54.028,102002,2016-03-14 09:59:36:494
-0.6251,2.5675,9.4795,-0.6,2.56,9.45,-0.05,-0.01,0.07,-0.0021,0.0,0.0,-105.69,71.63,59.88,62.36,-15.13,3.63,1036.57,54.074,102502,2016-03-14 09:59:36:994
-0.5964,2.6178,9.4675,-0.6,2.57,9.44,0.0,0.05,0.05,-0.0021,-0.0043,0.0,-105.69,73.06,61.44,62.64,-15.18,3.63,1036.58,54.21,103003,2016-03-14 09:59:37:495
-0.6371,2.5531,9.5058,-0.6,2.57,9.45,-0.03,-0.01,0.06,0.0,-0.0043,-0.0021,-105.31,71.63,61.06,62.83,-15.18,3.63,1036.52,54.953,103502,2016-03-14 09:59:37:994
-0.6419,2.6225,9.5633,-0.6,2.57,9.44,-0.04,0.04,0.07,0.0011,-0.0032,0.0,-106.06,71.63,60.25,62.97,-15.2,3.64,1036.6,54.422,104002,2016-03-14 09:59:38:494
-0.6299,2.577,9.525,-0.6,2.57,9.44,-0.03,0.01,0.04,0.0011,-0.0021,0.0,-105.69,73.06,60.25,63.08,-15.2,3.64,1036.52,53.953,104502,2016-03-14 09:59:38:994
-0.6682,2.5746,9.4963,-0.6,2.57,9.45,-0.06,0.01,0.05,0.0011,-0.0021,0.0,-105.31,72.31,61.06,62.84,-15.2,3.64,1036.48,54.334,105002,2016-03-14 09:59:39:494
-0.6227,2.5842,9.4891,-0.6,2.57,9.44,-0.03,0.02,0.07,0.0011,-0.0053,-0.0011,-105.69,71.63,60.25,62.97,-15.2,3.64,1036.47,53.978,105502,2016-03-14 09:59:39:994
-0.6371,2.5794,9.4915,-0.6,2.57,9.45,-0.03,0.01,0.04,0.0,-0.0021,0.0,-105.31,72.69,61.88,62.5,-15.18,3.63,1036.43,54.456,106002,2016-03-14 09:59:40:494
-0.5796,2.5746,9.5106,-0.59,2.57,9.45,0.02,0.01,0.07,0.0,-0.0021,0.0,-105.69,72.69,61.06,62.64,-15.18,3.63,1036.35,53.628,106501,2016-03-14 09:59:40:993
-0.6371,2.5651,9.4747,-0.59,2.57,9.44,-0.02,0.0,0.03,0.0011,-0.0032,-0.0011,-106.37,72.0,60.25,62.97,-15.2,3.64,1036.25,52.735,107003,2016-03-14 09:59:41:495
-0.6323,2.5866,9.4819,-0.6,2.57,9.45,-0.02,0.01,0.0,0.0011,-0.0021,-0.0021,-105.69,72.0,61.06,63.07,-15.18,3.63,1036.3,52.646,107502,2016-03-14 09:59:41:994
-0.5988,2.5866,9.5034,-0.59,2.56,9.45,0.0,0.02,0.06,0.0,-0.0021,-0.0021,-105.31,72.31,61.06,62.64,-15.18,3.63,1036.34,51.802,108002,2016-03-14 09:59:42:494
-0.6179,2.577,9.4531,-0.6,2.57,9.45,-0.03,0.01,0.03,0.0,-0.0021,0.0,-105.69,72.0,60.25,62.97,-15.18,3.63,1036.25,50.957,108502,2016-03-14 09:59:42:994
-0.6395,2.5914,9.4507,-0.6,2.57,9.44,-0.02,0.02,0.03,0.0011,-0.0032,0.0,-106.06,71.63,61.81,63.18,-15.2,3.64,1036.19,51.563,109003,2016-03-14 09:59:43:495
-0.6419,2.6106,9.4939,-0.59,2.62,9.43,-0.03,0.02,0.05,-0.0021,-0.0032,0.0032,-105.69,72.69,61.44,63.75,-15.55,3.58,1036.3,59.806,109502,2016-03-14 09:59:43:994
-0.6083,2.6082,9.4723,-0.59,2.61,9.44,-0.01,0.02,0.07,0.0053,-0.0011,-0.0021,-106.06,71.25,60.63,63.66,-15.43,3.58,1036.26,53.006,110003,2016-03-14 09:59:44:495
-0.6347,2.6178,9.525,-0.59,2.61,9.43,-0.02,0.01,0.06,-0.0021,0.0021,-0.0011,-105.69,72.69,59.88,63.23,-15.43,3.58,1036.26,52.919,110503,2016-03-14 09:59:44:995
-0.6131,2.6321,9.4723,-0.59,2.61,9.43,-0.03,0.0,0.05,0.0053,-0.0011,-0.0021,-105.69,71.63,61.44,63.24,-15.44,3.58,1036.22,52.762,111003,2016-03-14 09:59:45:495
-0.6203,2.6297,9.4436,-0.59,2.61,9.43,-0.03,0.01,-0.02,0.0075,-0.0032,-0.0011,-106.06,71.63,61.06,63.24,-15.44,3.58,1036.19,53.294,111503,2016-03-14 09:59:45:995
-0.6131,2.6704,9.4555,-0.59,2.63,9.43,-0.03,0.01,-0.02,0.0011,-0.0032,0.0011,-106.06,72.69,61.44,62.88,-15.55,3.58,1036.25,56.317,112002,2016-03-14 09:59:46:494
-0.6227,2.6345,9.4986,-0.6,2.63,9.43,-0.02,0.01,0.02,0.0011,-0.0032,-0.0011,-105.69,71.63,60.25,63.2,-15.55,3.64,1036.13,52.897,112502,2016-03-14 09:59:46:994
-0.6131,2.6393,9.4867,-0.6,2.63,9.43,-0.03,0.05,0.02,-0.0043,-0.0043,0.0,-105.31,71.25,61.81,63.62,-15.55,3.64,1036.02,54.131,113002,2016-03-14 09:59:47:494
-0.6251,2.6465,9.4555,-0.59,2.62,9.43,0.0,-0.01,0.06,0.0,0.0011,0.0,-105.31,71.25,60.63,63.38,-15.5,3.64,1036.08,54.453,113502,2016-03-14 09:59:47:994
-0.6514,2.6489,9.4555,-0.6,2.63,9.43,-0.05,0.02,0.03,0.0021,-0.0075,-0.0011,-105.31,71.63,61.06,63.08,-15.55,3.64,1036.14,54.483,114002,2016-03-14 09:59:48:494
-0.661,2.6417,9.4915,-0.6,2.63,9.43,-0.03,0.03,0.04,-0.0021,-0.0021,-0.0011,-106.06,71.25,61.06,63.74,-15.55,3.64,1035.96,52.807,114502,2016-03-14 09:59:48:994
-0.6155,2.6273,9.4627,-0.6,2.63,9.43,-0.01,0.03,0.03,0.0,0.0011,0.0021,-104.94,72.69,61.44,62.64,-15.55,3.64,1036.14,52.972,115002,2016-03-14 09:59:49:494
-0.6275,2.6776,9.4675,-0.59,2.63,9.43,-0.03,0.02,0.02,0.0043,-0.0032,-0.0021,-106.37,72.31,60.63,63.31,-15.55,3.58,1036.25,52.085,115502,2016-03-14 09:59:49:994
-0.6419,2.6489,9.4843,-0.6,2.63,9.43,-0.03,0.04,0.02,0.0021,-0.0011,0.0,-105.69,71.63,61.06,63.31,-15.55,3.64,1036.19,51.909,116006,2016-03-14 09:59:50:498
-0.6203,2.6537,9.4436,-0.6,2.62,9.43,-0.01,0.02,0.04,0.0,-0.0021,0.0,-105.69,71.25,60.25,63.6,-15.5,3.64,1036.02,53.994,116502,2016-03-14 09:59:50:994
-0.6395,2.6297,9.434,-0.6,2.63,9.43,-0.01,0.02,0.05,0.0011,-0.0011,-0.0011,-105.69,71.63,61.81,63.04,-15.5,3.64,1036.04,53.786,117003,2016-03-14 09:59:51:495
-0.5724,2.6154,9.3262,-0.61,2.61,9.43,-0.09,0.09,0.23,-0.0117,-0.0107,0.0,-105.31,72.0,61.0,63.24,-15.44,3.64,1036.04,55.149,117502,2016-03-14 09:59:51:994
-0.6227,2.601,9.4651,-0.6,2.6,9.44,0.0,0.01,0.02,0.0,-0.0011,-0.0011,-106.06,72.0,60.25,63.08,-15.37,3.64,1036.12,54.119,118002,2016-03-14 09:59:52:494
-0.6203,2.6417,9.4603,-0.59,2.61,9.43,-0.04,0.01,0.0,0.0202,-0.0053,-0.0011,-105.31,71.25,60.63,63.44,-15.44,3.58,1036.05,54.199,118502,2016-03-14 09:59:52:994
-0.6011,2.6369,9.4699,-0.59,2.62,9.43,-0.01,0.01,-0.02,-0.0117,-0.0021,-0.0021,-105.69,71.63,59.44,63.07,-15.5,3.58,1036.06,53.894,119003,2016-03-14 09:59:53:495
-0.6155,2.6058,9.4795,-0.59,2.59,9.44,-0.04,0.0,0.04,-0.0043,-0.0043,-0.0021,-105.69,72.0,61.81,63.3,-15.37,3.58,1036.1,54.536,119503,2016-03-14 09:59:53:995
-0.6203,2.6178,9.4986,-0.59,2.59,9.44,-0.03,0.02,0.05,0.0011,-0.0032,-0.0021,-105.69,72.31,61.44,63.16,-15.31,3.58,1036.1,54.493,120002,2016-03-14 09:59:54:494
-0.6203,2.5914,9.4723,-0.59,2.59,9.44,-0.04,0.01,0.04,-0.0011,0.0011,0.0011,-105.69,72.69,60.63,62.73,-15.31,3.58,1036.09,53.138,120502,2016-03-14 09:59:54:994
-0.6179,2.6321,9.4531,-0.59,2.59,9.44,-0.03,0.04,0.05,-0.0011,-0.0032,-0.0011,-106.37,72.69,61.44,62.73,-15.31,3.58,1036.17,52.659,121002,2016-03-14 09:59:55:494
-0.6251,2.601,9.4771,-0.59,2.6,9.44,-0.01,0.03,0.02,0.0,0.0011,-0.0011,-106.06,72.31,60.63,63.19,-15.37,3.58,1036.17,52.78,121503,2016-03-14 09:59:55:995
-0.6059,2.6202,9.4531,-0.59,2.6,9.44,-0.03,0.02,0.05,-0.0021,0.0011,-0.0011,-106.06,71.25,60.25,63.52,-15.37,3.58,1036.14,54.32,122002,2016-03-14 09:59:56:494
-0.6203,2.6082,9.4603,-0.59,2.59,9.44,-0.04,0.01,0.05,0.0,-0.0011,-0.0011,-106.37,72.31,61.06,63.16,-15.31,3.58,1036.3,54.264,122502,2016-03-14 09:59:56:994
-0.6251,2.613,9.4747,-0.6,2.59,9.44,-0.03,0.02,0.04,-0.0021,-0.0021,0.0,-105.69,71.25,60.19,63.48,-15.31,3.64,1036.25,59.603,123002,2016-03-14 09:59:57:494
-0.6179,2.5962,9.4747,-0.59,2.6,9.44,-0.02,0.02,0.03,-0.0011,-0.0021,0.0,-105.69,71.63,60.63,63.09,-15.37,3.58,1036.23,56.039,123503,2016-03-14 09:59:57:995
-0.6275,2.6225,9.4723,-0.6,2.6,9.44,-0.02,0.02,0.05,0.0011,-0.0043,0.0,-106.37,72.31,61.0,63.19,-15.37,3.64,1036.19,55.505,124003,2016-03-14 09:59:58:495
-0.6083,2.6225,9.4555,-0.59,2.61,9.44,-0.01,0.01,0.04,0.0011,-0.0021,-0.0011,-106.06,72.31,61.0,63.23,-15.43,3.58,1036.09,55.625,124503,2016-03-14 09:59:58:995
-0.6155,2.6154,9.4699,-0.59,2.6,9.44,-0.04,-0.01,0.05,0.0,-0.0021,-0.0011,-105.31,71.63,61.44,62.96,-15.37,3.58,1036.12,54.588,125002,2016-03-14 09:59:59:494
-0.6059,2.6106,9.4723,-0.59,2.6,9.44,-0.02,0.02,0.02,0.0011,-0.0011,-0.0011,-106.37,72.0,61.81,63.29,-15.37,3.64,1036.13,55.336,125503,2016-03-14 09:59:59:995
-0.6203,2.6058,9.4843,-0.59,2.6,9.44,-0.03,0.01,0.05,-0.0021,-0.0011,-0.0021,-104.94,71.25,61.81,62.53,-15.37,3.58,1036.21,57.051,126003,2016-03-14 10:00:00:495
-0.5964,2.6034,9.4675,-0.59,2.6,9.44,-0.03,0.01,0.01,-0.0011,-0.0011,0.0,-105.69,72.0,61.0,63.19,-15.37,3.58,1036.12,56.911,126502,2016-03-14 10:00:00:994
-0.6203,2.6082,9.4579,-0.59,2.6,9.44,-0.03,0.02,0.05,0.0011,-0.0021,0.0,-105.69,73.06,60.19,62.66,-15.37,3.58,1036.06,55.779,127003,2016-03-14 10:00:01:495
-0.6275,2.6058,9.4795,-0.59,2.6,9.44,-0.02,0.0,0.03,-0.0011,-0.0021,-0.0011,-106.06,72.31,61.0,63.19,-15.37,3.58,1036.19,56.278,127502,2016-03-14 10:00:01:994
-0.6035,2.6202,9.4819,-0.59,2.6,9.44,-0.02,0.0,0.0,0.0,-0.0011,-0.0021,-106.06,72.0,60.25,63.05,-15.31,3.58,1036.04,56.585,128002,2016-03-14 10:00:02:494
-0.6227,2.6202,9.4436,-0.59,2.6,9.44,-0.03,0.01,0.04,-0.0011,-0.0021,-0.0011,-106.06,71.25,59.81,63.52,-15.37,3.58,1036.09,55.708,128502,2016-03-14 10:00:02:994
-0.6227,2.6225,9.4939,-0.59,2.6,9.44,-0.02,0.02,0.05,0.0,0.0,0.0,-106.06,71.25,61.81,62.76,-15.37,3.58,1036.19,55.507,129002,2016-03-14 10:00:03:494
-0.6323,2.6106,9.4723,-0.6,2.6,9.44,-0.03,0.01,0.07,0.0,-0.0043,-0.0021,-106.37,72.31,61.0,63.19,-15.37,3.64,1036.21,56.307,129503,2016-03-14 10:00:03:995
-0.6179,2.6058,9.4603,-0.59,2.6,9.44,-0.01,0.01,0.04,0.0,-0.0032,-0.0011,-105.31,72.31,61.81,63.06,-15.37,3.58,1036.23,56.631,130002,2016-03-14 10:00:04:494
-0.6155,2.613,9.4795,-0.6,2.59,9.44,-0.02,0.03,0.05,-0.0021,-0.0032,-0.0011,-106.06,71.25,61.44,63.09,-15.37,3.58,1036.18,56.254,130502,2016-03-14 10:00:04:994
-0.5916,2.601,9.4795,-0.6,2.59,9.44,-0.02,-0.01,0.03,0.0,-0.0011,-0.0021,-106.06,71.63,60.63,63.19,-15.37,3.58,1036.15,57.284,131003,2016-03-14 10:00:05:495
-0.6155,2.6297,9.4795,-0.6,2.6,9.44,-0.02,0.03,0.04,-0.0021,-0.0021,0.0,-106.37,72.0,61.81,63.15,-15.31,3.64,1036.02,59.024,131502,2016-03-14 10:00:05:994
-0.6083,2.6297,9.4699,-0.59,2.59,9.44,0.0,0.01,0.02,-0.0021,0.0,0.0011,-105.69,72.0,61.44,63.15,-15.31,3.64,1036.12,58.315,132002,2016-03-14 10:00:06:494
-0.6347,2.5866,9.4843,-0.59,2.59,9.44,-0.03,0.01,0.04,-0.0011,-0.0021,0.0,-105.69,72.31,63.44,63.36,-15.31,3.58,1036.18,59.379,132503,2016-03-14 10:00:06:995
-0.6155,2.5818,9.4675,-0.59,2.58,9.44,-0.01,0.01,0.01,0.0,-0.0011,-0.0011,-106.06,73.44,61.0,62.88,-15.26,3.58,1036.21,60.101,133003,2016-03-14 10:00:07:495
-0.6251,2.6082,9.4723,-0.59,2.58,9.44,-0.03,0.02,0.04,0.0,-0.0032,-0.0011,-106.06,71.25,59.81,63.45,-15.26,3.58,1036.15,57.499,133502,2016-03-14 10:00:07:994
-0.6299,2.6034,9.5034,-0.6,2.58,9.44,-0.02,0.02,0.03,0.0011,0.0,-0.0011,-105.69,72.0,60.63,63.12,-15.26,3.58,1036.14,56.285,134002,2016-03-14 10:00:08:494
-0.6203,2.6034,9.4747,-0.59,2.58,9.44,-0.03,0.02,0.03,-0.0011,-0.0011,-0.0021,-105.69,72.0,60.19,63.02,-15.26,3.58,1036.17,56.353,134503,2016-03-14 10:00:08:995
-0.6275,2.5842,9.513,-0.59,2.58,9.44,-0.03,0.0,0.02,0.0,-0.0032,0.0,-105.31,71.63,60.63,62.88,-15.26,3.58,1036.13,58.397,135003,2016-03-14 10:00:09:495
-0.6275,2.6058,9.4963,-0.59,2.58,9.44,-0.04,0.02,0.02,0.0021,-0.0043,0.0011,-105.69,72.0,60.63,63.12,-15.26,3.58,1036.18,56.829,135502,2016-03-14 10:00:09:994
-0.6011,2.5962,9.4939,-0.59,2.58,9.44,-0.01,0.02,0.04,-0.0011,-0.0011,-0.0011,-106.06,72.0,60.63,63.12,-15.26,3.58,1036.17,56.287,136001,2016-03-14 10:00:10:493
-0.6275,2.5794,9.501,-0.59,2.58,9.44,-0.03,0.02,0.04,0.0011,-0.0021,0.0,-105.31,72.31,61.0,62.88,-15.26,3.58,1036.08,56.448,136502,2016-03-14 10:00:10:994
-0.6299,2.601,9.5154,-0.59,2.58,9.44,-0.03,0.02,0.04,0.0,-0.0021,-0.0011,-106.06,72.0,61.0,63.12,-15.26,3.58,1036.08,58.985,137002,2016-03-14 10:00:11:494
-0.6131,2.589,9.4867,-0.59,2.59,9.44,-0.02,0.0,0.05,-0.0011,-0.0043,-0.0011,-105.69,71.63,61.0,63.16,-15.31,3.58,1036.04,57.174,137503,2016-03-14 10:00:11:995
-0.6107,2.6106,9.5034,-0.59,2.59,9.44,-0.02,0.02,0.05,-0.0032,-0.0032,-0.0021,-105.69,73.06,60.63,62.73,-15.31,3.58,1036.18,55.406,138002,2016-03-14 10:00:12:494
-0.6419,2.6106,9.5082,-0.59,2.59,9.44,-0.04,0.03,0.05,-0.0011,-0.0021,-0.0011,-106.06,72.0,61.44,63.16,-15.31,3.58,1036.19,57.393,138502,2016-03-14 10:00:12:994
-0.6107,2.601,9.4939,-0.59,2.59,9.44,-0.02,0.01,0.05,-0.0011,-0.0043,-0.0021,-105.69,72.31,60.19,63.05,-15.31,3.58,1035.97,56.313,139002,2016-03-14 10:00:13:494
-0.6251,2.6106,9.4939,-0.59,2.58,9.44,-0.02,0.01,0.06,0.0032,-0.0011,0.0,-105.69,72.31,60.19,63.02,-15.26,3.58,1035.84,54.909,139502,2016-03-14 10:00:13:994
-0.6251,2.601,9.4867,-0.59,2.58,9.44,-0.03,0.0,0.02,-0.0021,-0.0021,0.0,-105.69,72.0,59.81,62.73,-15.31,3.58,1035.88,56.914,140003,2016-03-14 10:00:14:495
-0.6203,2.5986,9.4819,-0.59,2.59,9.44,-0.02,0.0,0.01,0.0,0.0,-0.0021,-106.06,72.31,60.63,63.12,-15.26,3.58,1036.02,58.424,140503,2016-03-14 10:00:14:995
-0.6179,2.6106,9.4867,-0.59,2.59,9.44,-0.03,-0.01,0.04,0.0011,-0.0032,0.0,-105.69,72.69,61.0,62.73,-15.31,3.58,1036.09,58.497,141003,2016-03-14 10:00:15:495
-0.6059,2.613,9.4939,-0.59,2.59,9.44,-0.02,0.02,0.04,-0.0011,0.0011,-0.0011,-105.69,73.06,60.63,62.73,-15.31,3.58,1036.1,60.183,141502,2016-03-14 10:00:15:994
-0.6179,2.6106,9.4891,-0.59,2.59,9.44,-0.02,0.02,0.05,-0.0011,-0.0021,-0.0021,-105.31,72.31,59.81,62.82,-15.31,3.58,1036.06,59.268,142002,2016-03-14 10:00:16:494
-0.6323,2.6297,9.4819,-0.59,2.59,9.44,-0.03,0.02,0.04,-0.0032,-0.0043,0.0,-106.06,72.0,59.81,63.05,-15.31,3.58,1035.99,60.047,142503,2016-03-14 10:00:16:995
-0.6347,2.589,9.4891,-0.59,2.59,9.44,-0.02,0.02,0.05,0.0011,-0.0021,-0.0032,-105.31,71.63,60.19,62.82,-15.31,3.58,1035.91,60.803,143003,2016-03-14 10:00:17:495
-0.6347,2.5986,9.5034,-0.59,2.59,9.44,-0.05,0.02,0.04,0.0011,-0.0011,-0.0021,-106.06,72.31,60.63,62.88,-15.26,3.58,1035.99,62.387,143502,2016-03-14 10:00:17:994
-0.5868,2.6537,9.4005,-0.59,2.61,9.43,-0.03,0.0,0.03,0.0085,-0.0011,0.0011,-105.31,72.0,61.0,63.24,-15.44,3.58,1036.05,62.136,144002,2016-03-14 10:00:18:494
-0.6538,2.5339,9.4507,-0.6,2.62,9.43,-0.03,0.01,-0.01,-0.0192,-0.0043,-0.0021,-105.31,72.0,60.63,63.42,-15.55,3.58,1035.99,60.745,144502,2016-03-14 10:00:18:994
-0.6299,2.5938,9.4699,-0.6,2.59,9.44,-0.02,0.01,0.03,-0.0107,-0.0021,-0.0011,-106.37,73.06,61.0,62.72,-15.31,3.64,1035.97,61.767,145002,2016-03-14 10:00:19:494
-0.6538,2.589,9.4555,-0.61,2.58,9.44,-0.01,0.01,0.04,-0.0117,0.0021,0.0011,-105.31,71.25,61.38,63.31,-15.26,3.7,1035.96,62.439,145503,2016-03-14 10:00:19:995
-0.6443,2.5483,9.5585,-0.62,2.57,9.44,-0.01,0.0,0.02,-0.0181,0.0053,-0.0021,-105.69,71.63,60.19,62.97,-15.2,3.76,1035.96,61.446,146002,2016-03-14 10:00:20:494
-0.6131,2.5866,9.4603,-0.61,2.56,9.45,-0.04,0.04,0.11,0.016,-0.0032,0.0,-105.31,73.06,60.19,62.26,-15.13,3.69,1035.99,59.469,146503,2016-03-14 10:00:20:995
-0.6514,2.5723,9.4843,-0.6,2.57,9.45,-0.02,0.04,0.03,0.0011,-0.0021,-0.0021,-104.56,73.06,61.38,62.4,-15.18,3.63,1036.04,60.039,147003,2016-03-14 10:00:21:495
-0.6467,2.5699,9.4867,-0.61,2.57,9.45,-0.04,0.02,0.08,-0.0043,-0.0064,-0.0011,-105.31,72.38,61.0,63.13,-15.13,3.69,1035.89,59.906,147502,2016-03-14 10:00:21:994
-0.6299,2.5914,9.4747,-0.61,2.57,9.44,-0.02,0.02,0.03,0.0011,-0.0021,-0.0011,-104.94,72.31,59.81,62.73,-15.2,3.7,1036.02,61.306,148002,2016-03-14 10:00:22:494
-0.6395,2.5675,9.4723,-0.61,2.57,9.45,-0.02,0.02,0.01,0.0011,-0.0011,-0.0011,-105.31,72.0,61.38,62.83,-15.18,3.69,1036.06,61.618,148503,2016-03-14 10:00:22:995
-0.6179,2.5699,9.4388,-0.61,2.56,9.45,-0.02,-0.01,0.02,-0.0021,-0.0043,-0.0021,-104.94,71.63,60.19,62.69,-15.13,3.69,1036.02,62.267,149002,2016-03-14 10:00:23:494
-0.6491,2.5866,9.4627,-0.61,2.57,9.44,-0.01,-0.01,0.02,0.0021,-0.0053,0.0,-106.06,72.31,62.19,63.18,-15.2,3.7,1035.96,60.363,149502,2016-03-14 10:00:23:994
-0.6826,2.5746,9.4915,-0.61,2.57,9.44,-0.02,0.02,0.06,-0.0011,-0.0021,-0.0011,-105.31,73.44,60.63,62.4,-15.2,3.7,1035.92,56.715,150002,2016-03-14 10:00:24:494
-0.6227,2.5555,9.4699,-0.61,2.57,9.44,-0.03,0.01,0.04,0.0011,-0.0021,-0.0011,-105.69,72.38,59.81,62.97,-15.2,3.76,1035.99,58.29,150502,2016-03-14 10:00:24:994
-0.6443,2.6082,9.4699,-0.61,2.57,9.44,-0.03,0.02,0.03,0.0011,-0.0032,0.0,-106.37,72.0,61.0,63.07,-15.2,3.7,1036.01,59.923,151003,2016-03-14 10:00:25:495
-0.6251,2.5699,9.4651,-0.61,2.57,9.44,-0.03,0.01,0.04,0.0021,-0.0032,-0.0011,-104.94,72.69,60.19,62.3,-15.2,3.7,1036.0,59.91,151503,2016-03-14 10:00:25:995
-0.6682,2.5842,9.4723,-0.61,2.58,9.44,-0.02,0.02,0.05,0.0011,-0.0032,-0.0011,-106.06,72.0,59.81,62.84,-15.2,3.7,1036.04,57.867,152003,2016-03-14 10:00:26:495
-0.6227,2.5794,9.513,-0.61,2.57,9.44,-0.03,0.01,0.03,0.0,-0.0011,0.0,-104.94,72.38,61.0,62.84,-15.2,3.7,1035.82,57.958,152502,2016-03-14 10:00:26:994
-0.6371,2.5842,9.4747,-0.61,2.58,9.44,-0.06,0.02,0.07,-0.0032,-0.0011,0.0,-105.31,72.38,60.63,62.87,-15.26,3.7,1035.76,59.013,153002,2016-03-14 10:00:27:494
-0.6538,2.6058,9.513,-0.61,2.58,9.44,-0.02,0.01,0.05,-0.0032,-0.0011,-0.0021,-106.37,72.69,60.63,62.64,-15.2,3.7,1035.93,57.877,153502,2016-03-14 10:00:27:994
-0.6035,2.6273,9.4819,-0.6,2.58,9.44,0.0,0.03,0.03,-0.0043,-0.0053,0.0,-104.94,71.63,61.0,62.88,-15.26,3.64,1035.95,58.356,154002,2016-03-14 10:00:28:494
-0.6347,2.5746,9.5034,-0.6,2.58,9.44,-0.05,-0.01,0.01,0.0011,-0.0032,-0.0011,-105.31,72.0,61.38,62.88,-15.26,3.64,1035.84,56.884,154502,2016-03-14 10:00:28:994
-0.6131,2.5986,9.5298,-0.6,2.58,9.44,-0.02,0.02,0.05,0.0011,-0.0011,-0.0011,-105.31,71.63,60.63,62.88,-15.26,3.64,1035.95,57.405,155002,2016-03-14 10:00:29:494
-0.6419,2.5914,9.4699,-0.6,2.57,9.44,-0.04,0.0,0.06,-0.0043,-0.0043,0.0,-105.69,72.69,61.38,62.65,-15.2,3.64,1036.0,57.029,155503,2016-03-14 10:00:29:995
-0.6371,2.6609,9.4723,-0.6,2.61,9.44,-0.01,0.01,0.05,-0.0032,-0.0011,-0.0021,-105.69,72.0,60.63,63.23,-15.43,3.64,1036.1,59.855,156003,2016-03-14 10:00:30:495
-0.6323,2.6202,9.434,-0.6,2.64,9.43,-0.02,0.02,0.07,-0.0053,0.0053,-0.0032,-105.69,71.25,61.0,63.78,-15.61,3.64,1036.06,60.396,156503,2016-03-14 10:00:30:995
-0.6419,2.6297,9.5202,-0.61,2.59,9.44,-0.02,0.03,0.09,-0.0032,-0.0021,-0.0011,-105.69,72.0,61.38,63.15,-15.31,3.64,1036.04,61.026,157003,2016-03-14 10:00:31:495
-0.6347,2.6225,9.5274,-0.6,2.59,9.44,0.01,0.02,0.05,0.0043,-0.0011,-0.0011,-105.69,72.0,61.38,63.15,-15.31,3.64,1035.89,59.336,157503,2016-03-14 10:00:31:995
-0.6562,2.6058,9.4891,-0.6,2.58,9.44,-0.05,0.02,0.02,0.0032,-0.0011,-0.0011,-105.31,72.31,61.38,62.88,-15.26,3.64,1035.84,57.874,158002,2016-03-14 10:00:32:494
-0.6131,2.6082,9.4795,-0.59,2.58,9.44,-0.03,0.02,0.04,-0.0011,-0.0021,0.0,-106.06,72.69,62.19,62.79,-15.26,3.58,1035.86,55.458,158502,2016-03-14 10:00:32:994
-0.6323,2.5962,9.4771,-0.6,2.58,9.44,-0.03,0.03,0.0,0.0,-0.0021,-0.0021,-105.31,72.0,61.38,62.84,-15.2,3.64,1035.75,54.839,159002,2016-03-14 10:00:33:494
-0.6299,2.6178,9.5178,-0.59,2.58,9.44,-0.02,0.02,0.01,-0.0021,0.0,0.0,-106.06,71.25,60.19,63.45,-15.26,3.58,1035.84,57.078,159502,2016-03-14 10:00:33:994
-0.6107,2.6273,9.501,-0.6,2.58,9.44,-0.03,0.03,0.04,0.0,-0.0021,0.0,-105.69,72.38,60.19,63.01,-15.26,3.64,1035.91,58.482,160002,2016-03-14 10:00:34:494
-0.5892,2.6202,9.4867,-0.6,2.59,9.44,-0.03,0.01,0.03,0.0043,-0.0021,-0.0011,-104.94,71.63,60.19,62.81,-15.31,3.64,1035.93,59.077,160502,2016-03-14 10:00:34:994
-0.6299,2.6202,9.5106,-0.6,2.59,9.44,-0.02,0.01,0.06,-0.0032,-0.0032,0.0011,-105.31,71.25,61.0,63.35,-15.31,3.64,1035.89,59.038,161002,2016-03-14 10:00:35:494
-0.6203,2.601,9.4555,-0.6,2.59,9.44,-0.02,0.02,0.06,0.0,0.0011,-0.0021,-106.06,71.63,60.19,63.05,-15.31,3.64,1035.97,57.708,161503,2016-03-14 10:00:35:995
-0.6203,2.601,9.501,-0.6,2.59,9.44,-0.03,0.01,0.02,0.0011,-0.0043,-0.0021,-105.69,72.31,60.63,63.11,-15.26,3.64,1035.89,56.758,162003,2016-03-14 10:00:36:495
-0.6059,2.6178,9.4603,-0.6,2.58,9.44,-0.01,0.03,0.02,-0.0011,-0.0011,0.0,-105.31,71.25,61.38,63.31,-15.26,3.64,1035.96,59.008,162502,2016-03-14 10:00:36:994
-0.6323,2.601,9.5034,-0.6,2.59,9.44,-0.03,0.02,0.06,-0.0021,-0.0021,0.0,-105.69,71.63,60.19,63.05,-15.31,3.64,1035.89,59.272,163002,2016-03-14 10:00:37:494
-0.6131,2.6034,9.4891,-0.6,2.59,9.44,-0.02,0.0,0.08,0.0,-0.0021,0.0,-106.06,71.63,61.0,63.15,-15.31,3.64,1036.01,58.638,163502,2016-03-14 10:00:37:994
-0.6059,2.613,9.5346,-0.6,2.59,9.44,-0.02,0.02,0.07,-0.0032,-0.0011,-0.0011,-104.56,71.63,62.19,63.02,-15.31,3.64,1035.89,58.825,164003,2016-03-14 10:00:38:495
-0.5988,2.5866,9.4627,-0.6,2.58,9.44,-0.02,0.01,0.04,0.0021,-0.0021,-0.0011,-105.69,72.0,61.0,63.11,-15.26,3.64,1035.8,57.015,164502,2016-03-14 10:00:38:994
-0.6251,2.577,9.4747,-0.6,2.58,9.44,-0.01,0.03,0.04,0.0011,-0.0021,0.0,-106.06,73.06,61.0,62.68,-15.26,3.64,1035.88,58.738,165003,2016-03-14 10:00:39:495
-0.6443,2.5746,9.4627,-0.6,2.59,9.44,-0.04,-0.01,0.02,0.0,-0.0011,0.0,-106.75,71.25,61.0,63.81,-15.31,3.64,1035.89,56.375,165502,2016-03-14 10:00:39:994
-0.6538,2.5938,9.4507,-0.6,2.59,9.44,0.0,0.01,0.03,-0.0011,-0.0053,-0.0011,-106.37,71.63,60.19,63.49,-15.31,3.64,1035.84,56.822,166002,2016-03-14 10:00:40:494
-0.6275,2.601,9.4507,-0.6,2.59,9.44,-0.04,0.01,0.0,-0.0011,-0.0011,0.0,-106.06,70.88,60.56,63.58,-15.31,3.64,1035.89,56.066,166502,2016-03-14 10:00:40:994
-0.6347,2.5938,9.4747,-0.6,2.59,9.44,-0.03,0.0,0.01,0.0,0.0,-0.0011,-105.31,72.0,61.81,63.02,-15.31,3.64,1035.83,56.845,167002,2016-03-14 10:00:41:494
-0.6179,2.6034,9.4939,-0.6,2.58,9.44,-0.04,0.01,0.03,0.0011,-0.0011,-0.0011,-105.69,71.63,61.81,63.31,-15.26,3.64,1035.8,56.699,167502,2016-03-14 10:00:41:994
-0.6179,2.6249,9.4939,-0.6,2.59,9.44,-0.01,0.01,0.09,0.0011,-0.0011,-0.0011,-106.37,73.06,61.0,62.68,-15.26,3.64,1035.82,58.279,168002,2016-03-14 10:00:42:494
-0.6275,2.6034,9.4843,-0.6,2.59,9.44,-0.03,0.01,0.05,0.0,-0.0032,-0.0011,-106.06,72.0,61.38,62.72,-15.31,3.64,1035.88,55.628,168503,2016-03-14 10:00:42:995
-0.6203,2.613,9.4939,-0.6,2.59,9.44,-0.03,0.01,0.05,-0.0011,-0.0021,0.0,-105.69,72.38,61.0,62.72,-15.31,3.64,1035.93,54.76,169002,2016-03-14 10:00:43:494
-0.6203,2.601,9.4675,-0.6,2.6,9.44,-0.03,0.04,0.06,0.0011,-0.0043,0.0,-106.37,71.63,61.38,63.19,-15.37,3.64,1035.89,54.031,169502,2016-03-14 10:00:43:994
-0.6083,2.6273,9.4891,-0.6,2.62,9.43,-0.02,0.01,0.06,-0.0032,-0.0043,0.0011,-106.06,71.63,61.81,63.38,-15.5,3.64,1035.82,54.37,170002,2016-03-14 10:00:44:494
-0.6155,2.6106,9.4723,-0.6,2.6,9.44,-0.02,0.01,0.07,-0.0032,-0.0032,-0.0011,-106.06,73.06,59.38,62.55,-15.37,3.64,1036.0,59.512,170502,2016-03-14 10:00:44:994
-0.6011,2.601,9.4412,-0.6,2.59,9.44,-0.02,0.02,0.04,0.0,-0.0043,-0.0021,-106.06,71.63,61.0,63.15,-15.31,3.64,1035.91,56.744,171002,2016-03-14 10:00:45:494
-0.6538,2.5962,9.4316,-0.6,2.59,9.44,-0.01,0.02,0.04,-0.0021,0.0011,-0.0011,-106.06,71.63,62.56,63.36,-15.31,3.64,1035.8,54.742,171502,2016-03-14 10:00:45:994
-0.6011,2.5938,9.446,-0.6,2.59,9.44,0.0,0.0,0.0,0.0011,-0.0032,-0.0021,-106.37,72.38,61.0,63.15,-15.31,3.64,1035.89,57.721,172002,2016-03-14 10:00:46:494
-0.6347,2.6058,9.4723,-0.6,2.59,9.44,-0.04,0.02,0.01,-0.0011,-0.0011,-0.0011,-106.37,71.25,61.0,63.58,-15.31,3.64,1036.05,57.897,172502,2016-03-14 10:00:46:994
-0.6107,2.6178,9.525,-0.6,2.59,9.44,-0.02,0.01,0.06,-0.0011,0.0,-0.0021,-106.06,72.69,61.0,62.72,-15.31,3.64,1036.01,54.661,173002,2016-03-14 10:00:47:494
-0.6275,2.6297,9.5154,-0.6,2.59,9.44,-0.02,0.0,0.02,0.0,-0.0032,0.0,-106.06,72.69,61.81,62.82,-15.31,3.64,1035.86,54.167,173503,2016-03-14 10:00:47:995
-0.6107,2.6225,9.5226,-0.6,2.59,9.44,-0.02,0.02,0.06,0.0,-0.0053,0.0021,-105.31,73.06,61.0,62.48,-15.31,3.64,1035.89,56.9,174003,2016-03-14 10:00:48:495
-0.6443,2.6154,9.4603,-0.6,2.59,9.44,-0.03,0.02,0.05,0.0011,-0.0021,-0.0011,-105.31,71.25,60.63,63.35,-15.31,3.64,1035.82,57.87,174503,2016-03-14 10:00:48:995
-0.6323,2.6058,9.5082,-0.6,2.59,9.44,-0.03,0.01,0.06,0.0,-0.0021,0.0011,-106.37,72.69,61.0,62.72,-15.31,3.64,1035.84,55.636,175002,2016-03-14 10:00:49:494
-0.6347,2.6225,9.4507,-0.6,2.59,9.44,-0.02,0.03,0.07,-0.0032,-0.0021,0.0011,-106.06,72.38,60.19,63.05,-15.31,3.64,1035.78,56.483,175502,2016-03-14 10:00:49:994
-0.6155,2.5842,9.4699,-0.6,2.59,9.44,0.01,0.02,0.07,0.0,-0.0021,0.0,-106.06,72.0,61.0,63.15,-15.31,3.64,1035.75,54.683,176002,2016-03-14 10:00:50:494
-0.6251,2.6202,9.4867,-0.6,2.59,9.44,-0.02,0.0,0.01,-0.0011,-0.0021,-0.0011,-105.31,72.69,61.38,62.48,-15.31,3.64,1035.97,54.222,176502,2016-03-14 10:00:50:994
-0.6538,2.5818,9.5058,-0.6,2.59,9.44,-0.03,0.0,0.03,-0.0011,-0.0021,-0.0021,-106.06,71.63,62.19,63.25,-15.31,3.64,1035.99,54.818,177002,2016-03-14 10:00:51:494
-0.6275,2.6178,9.4747,-0.6,2.59,9.44,-0.01,0.01,0.03,-0.0011,-0.0011,-0.0011,-106.06,70.88,60.56,63.58,-15.31,3.64,1035.88,56.282,177503,2016-03-14 10:00:51:995
-0.6347,2.5914,9.4579,-0.6,2.59,9.44,-0.02,0.01,0.03,-0.0021,-0.0021,0.0,-106.06,72.69,60.19,62.62,-15.31,3.64,1035.86,62.363,178002,2016-03-14 10:00:52:494
-0.6395,2.6178,9.4484,-0.6,2.59,9.44,-0.02,0.03,0.04,-0.0021,-0.0021,-0.0011,-106.06,71.25,62.19,63.69,-15.31,3.64,1035.79,57.598,178504,2016-03-14 10:00:52:996
-0.6491,2.6082,9.5154,-0.6,2.59,9.44,-0.07,0.02,0.0,0.0011,-0.0011,-0.0011,-106.75,71.63,61.38,63.38,-15.31,3.64,1035.83,57.61,179002,2016-03-14 10:00:53:494
-0.6035,2.6154,9.4675,-0.6,2.58,9.44,0.0,0.03,0.03,-0.0011,-0.0021,-0.0011,-106.37,73.81,61.38,62.3,-15.31,3.58,1035.92,55.452,179503,2016-03-14 10:00:53:995
-0.6395,2.6154,9.4699,-0.6,2.59,9.44,-0.1,-0.04,0.2,0.0064,-0.0107,-0.0011,-106.06,72.0,61.0,63.15,-15.31,3.64,1035.87,56.502,180002,2016-03-14 10:00:54:494
-0.6203,2.5938,9.4627,-0.6,2.58,9.44,-0.02,0.01,0.0,0.0043,-0.0107,0.0,-106.06,71.25,61.38,63.55,-15.26,3.64,1035.8,56.843,180502,2016-03-14 10:00:54:994
-0.6251,2.6297,9.4939,-0.6,2.58,9.44,-0.03,0.04,0.05,0.0021,-0.0021,-0.0011,-106.75,72.0,60.19,63.24,-15.26,3.64,1035.86,56.101,181003,2016-03-14 10:00:55:495
-0.6251,2.5818,9.4819,-0.6,2.59,9.44,-0.03,0.01,0.04,-0.0011,-0.0011,0.0,-104.94,71.63,61.38,62.92,-15.31,3.64,1035.87,57.817,181503,2016-03-14 10:00:55:995
-0.6227,2.6273,9.4939,-0.6,2.59,9.44,-0.03,0.03,0.05,0.0021,0.0,-0.0011,-106.06,72.69,61.38,62.68,-15.26,3.64,1035.96,57.375,182002,2016-03-14 10:00:56:494
-0.6227,2.613,9.5058,-0.6,2.59,9.44,-0.02,0.02,0.07,0.0,-0.0043,-0.0011,-106.37,73.06,61.38,62.72,-15.31,3.64,1035.93,57.708,182502,2016-03-14 10:00:56:994
-0.6203,2.6082,9.4843,-0.6,2.58,9.44,-0.04,0.01,0.03,0.0,-0.0032,0.0011,-105.69,72.0,61.81,63.22,-15.26,3.64,1036.04,54.996,183003,2016-03-14 10:00:57:495
-0.6419,2.6178,9.4963,-0.61,2.59,9.44,-0.03,0.01,0.01,-0.0032,0.0011,-0.0021,-105.69,72.0,62.19,63.25,-15.31,3.64,1036.06,54.916,183502,2016-03-14 10:00:57:994
-0.6251,2.601,9.5489,-0.6,2.58,9.44,-0.02,0.01,0.09,0.0,-0.0032,0.0,-106.37,72.38,61.0,63.11,-15.26,3.64,1036.09,56.928,184002,2016-03-14 10:00:58:494
-0.6251,2.589,9.4436,-0.6,2.58,9.44,-0.03,0.01,0.03,-0.0032,0.0,-0.0021,-106.06,72.38,61.38,63.11,-15.26,3.64,1036.17,56.015,184502,2016-03-14 10:00:58:994
-0.6275,2.5962,9.4172,-0.6,2.58,9.44,-0.01,0.02,0.07,-0.0032,-0.0021,0.0,-105.69,72.0,60.56,63.11,-15.26,3.64,1036.25,58.302,185003,2016-03-14 10:00:59:495
-0.6682,2.5866,9.5034,-0.62,2.56,9.45,-0.05,0.01,0.01,-0.0032,0.0011,-0.0021,-106.06,73.44,61.0,63.13,-15.13,3.69,1036.27,57.083,185502,2016-03-14 10:00:59:994
-0.6754,2.5579,9.5034,-0.62,2.56,9.45,-0.03,0.0,0.01,-0.0011,0.0021,-0.0011,-106.06,72.38,61.75,63.12,-15.13,3.75,1036.28,57.213,186002,2016-03-14 10:01:00:494
-0.6586,2.5866,9.4819,-0.62,2.55,9.45,-0.02,0.03,0.05,-0.0021,-0.0011,-0.0011,-106.06,71.63,61.38,63.02,-15.13,3.75,1036.35,56.372,186502,2016-03-14 10:01:00:994
-0.6443,2.5411,9.4675,-0.62,2.55,9.45,-0.01,-0.01,0.03,0.0011,-0.0011,-0.0011,-106.37,72.0,61.75,63.12,-15.13,3.75,1036.47,57.146,187002,2016-03-14 10:01:01:494
-0.6275,2.589,9.4891,-0.62,2.55,9.45,-0.01,0.04,0.01,0.0,-0.0011,-0.0011,-105.31,72.0,61.81,62.98,-15.07,3.75,1036.28,56.329,187503,2016-03-14 10:01:01:995
-0.6395,2.5818,9.5106,-0.62,2.55,9.45,-0.02,0.02,-0.04,-0.0011,-0.0064,-0.0021,-106.06,72.38,62.19,63.09,-15.07,3.75,1036.26,58.318,188003,2016-03-14 10:01:02:495
-0.6538,2.5842,9.5274,-0.62,2.55,9.45,-0.04,0.0,0.02,0.0043,-0.0053,-0.0011,-105.31,72.0,60.19,62.65,-15.07,3.75,1036.28,55.639,188503,2016-03-14 10:01:02:995
-0.673,2.5555,9.525,-0.62,2.55,9.45,-0.01,0.03,0.05,0.0032,-0.0043,-0.0011,-105.31,72.69,60.19,62.22,-15.07,3.75,1036.28,57.672,189002,2016-03-14 10:01:03:494
-0.6514,2.5435,9.5226,-0.62,2.55,9.45,-0.01,0.01,0.07,0.0,0.0,0.0,-105.31,71.63,61.38,62.75,-15.07,3.75,1036.34,57.234,189502,2016-03-14 10:01:03:994
-0.6443,2.5866,9.5202,-0.63,2.55,9.45,-0.01,0.03,0.07,0.0011,-0.0032,-0.0011,-106.06,71.63,61.0,62.98,-15.07,3.81,1036.19,57.273,190002,2016-03-14 10:01:04:494
-0.6107,2.577,9.4795,-0.62,2.55,9.45,-0.01,-0.01,0.02,-0.0032,-0.0011,-0.0032,-105.31,72.69,60.19,62.22,-15.07,3.75,1036.22,59.392,190502,2016-03-14 10:01:04:994
-0.6203,2.6034,9.5106,-0.62,2.55,9.45,-0.04,0.0,0.04,0.0064,-0.0053,0.0,-105.69,71.63,61.38,62.98,-15.07,3.75,1036.27,58.892,191003,2016-03-14 10:01:05:495
-0.6514,2.6273,9.4292,-0.63,2.63,9.43,-0.02,0.01,0.03,0.0096,0.0085,-0.0011,-106.37,72.69,61.75,62.97,-15.55,3.82,1036.34,57.784,191503,2016-03-14 10:01:05:995
-0.661,2.601,9.2759,-0.65,2.65,9.42,-0.05,0.02,0.02,-0.017,-0.0266,-0.0032,-104.94,72.69,62.56,62.92,-15.68,3.95,1036.38,55.518,192003,2016-03-14 10:01:06:495
-0.6011,2.6776,9.3813,-0.6,2.66,9.42,0.01,0.02,-0.12,-0.0948,0.0309,0.0021,-105.69,72.0,61.38,63.42,-15.74,3.83,1036.34,60.129,192503,2016-03-14 10:01:06:995
-0.7664,2.4333,9.7405,-0.76,2.41,9.48,0.0,0.03,0.25,0.0479,-0.0117,-0.0064,-105.69,72.69,61.38,62.08,-14.41,4.35,1036.38,63.782,193002,2016-03-14 10:01:07:494
-0.6993,2.5555,9.4699,-0.73,2.49,9.46,0.04,0.08,0.05,-0.0011,0.0245,0.0021,-106.06,73.06,61.38,62.27,-14.71,4.35,1036.34,58.234,193503,2016-03-14 10:01:07:995
-0.6754,2.498,9.4747,-0.7,2.5,9.46,-0.01,0.12,0.01,-0.0032,0.0011,-0.0021,-105.69,72.38,61.75,62.85,-14.76,4.23,1036.3,60.743,194003,2016-03-14 10:01:08:495
-0.6682,2.5794,9.4627,-0.69,2.51,9.46,0.0,0.04,0.07,-0.0053,0.0,-0.0011,-105.69,72.69,61.38,62.36,-14.82,4.17,1036.3,56.53,194502,2016-03-14 10:01:08:994
-0.7209,2.5699,9.4843,-0.69,2.51,9.45,0.03,0.06,0.08,-0.0043,-0.0011,-0.0011,-106.06,72.69,62.19,62.47,-14.84,4.18,1036.22,53.588,195002,2016-03-14 10:01:09:494
-0.697,2.5411,9.4867,-0.69,2.51,9.45,-0.01,0.02,0.05,-0.0021,0.0011,-0.0011,-106.06,72.69,61.0,62.37,-14.84,4.18,1036.23,55.431,195503,2016-03-14 10:01:09:995
-0.6993,2.5435,9.5226,-0.69,2.52,9.45,-0.01,0.02,0.07,-0.0011,-0.0032,0.0,-105.31,72.0,61.75,62.7,-14.89,4.18,1036.31,57.214,196002,2016-03-14 10:01:10:494
-0.6898,2.5315,9.5202,-0.69,2.52,9.45,-0.02,0.03,0.05,0.0,-0.0011,-0.0011,-105.69,72.0,61.38,62.84,-14.89,4.18,1036.27,56.084,196503,2016-03-14 10:01:10:995
-0.6922,2.5627,9.4891,-0.69,2.52,9.45,-0.01,0.02,0.02,0.0,-0.0043,0.0,-106.75,73.06,60.19,62.55,-14.89,4.18,1036.27,56.315,197002,2016-03-14 10:01:11:494
-0.6993,2.5363,9.4963,-0.68,2.52,9.45,-0.03,0.01,0.04,-0.0011,-0.0021,0.0,-106.06,72.69,62.19,62.51,-14.89,4.12,1036.27,55.051,197503,2016-03-14 10:01:11:995
-0.7161,2.5579,9.5226,-0.68,2.52,9.45,-0.03,0.03,0.06,-0.0011,-0.0021,-0.0011,-105.69,72.38,61.75,62.94,-14.89,4.12,1036.27,53.702,198002,2016-03-14 10:01:12:494
-0.7592,2.522,9.4723,-0.68,2.52,9.45,-0.01,0.03,0.03,0.0,-0.0043,-0.0021,-105.69,71.63,60.94,62.84,-14.89,4.12,1036.23,56.765,198503,2016-03-14 10:01:12:995
-0.7257,2.5411,9.4795,-0.68,2.52,9.45,-0.01,0.01,0.06,-0.0032,-0.0011,-0.0021,-105.69,71.63,61.38,62.84,-14.89,4.12,1036.28,56.06,199002,2016-03-14 10:01:13:494
-0.7281,2.5435,9.525,-0.68,2.52,9.45,-0.04,0.02,0.03,-0.0011,-0.0011,0.0,-105.69,73.44,61.0,62.84,-14.89,4.12,1036.27,54.323,199502,2016-03-14 10:01:13:994
-0.7209,2.5435,9.5322,-0.68,2.52,9.45,-0.04,0.02,0.01,-0.0021,-0.0032,-0.0011,-105.69,73.06,62.19,62.41,-14.89,4.12,1036.18,56.141,200002,2016-03-14 10:01:14:494
-0.7137,2.5459,9.4771,-0.67,2.53,9.45,-0.04,0.03,0.09,0.0,0.0,0.0,-105.69,73.06,60.94,63.28,-14.9,4.06,1036.15,56.429,200502,2016-03-14 10:01:14:994
-0.7305,2.5196,9.5034,-0.68,2.53,9.45,-0.04,0.03,0.05,0.0032,-0.0011,0.0,-106.37,73.44,61.38,62.45,-14.95,4.12,1036.26,53.681,201002,2016-03-14 10:01:15:494
-0.7161,2.5555,9.4699,-0.69,2.53,9.45,-0.02,0.0,0.07,-0.0021,-0.0021,-0.0011,-105.31,71.63,60.56,62.64,-14.95,4.18,1036.26,54.131,201504,2016-03-14 10:01:15:996
-0.7305,2.5076,9.4771,-0.69,2.52,9.45,-0.02,0.01,0.04,-0.0021,-0.0021,-0.0011,-106.37,72.0,61.38,62.84,-14.89,4.18,1036.28,55.878,202002,2016-03-14 10:01:16:494
-0.7305,2.5172,9.4484,-0.69,2.51,9.45,-0.05,0.01,0.06,0.0,-0.0032,0.0,-105.69,73.44,61.38,62.37,-14.84,4.18,1036.35,56.678,202503,2016-03-14 10:01:16:995
-0.697,2.522,9.4771,-0.69,2.51,9.45,0.0,0.01,0.02,-0.0011,-0.0064,-0.0011,-105.31,72.0,62.19,62.37,-14.84,4.18,1036.32,57.474,203002,2016-03-14 10:01:17:494
-0.7233,2.5196,9.4939,-0.69,2.51,9.45,-0.04,-0.01,0.03,0.0021,-0.0021,-0.0032,-105.69,73.81,60.56,61.94,-14.84,4.18,1036.28,55.345,203503,2016-03-14 10:01:17:995
-0.7281,2.5411,9.5106,-0.69,2.52,9.45,-0.01,0.02,0.03,0.0011,-0.0021,-0.0011,-105.69,73.44,61.75,62.51,-14.89,4.18,1036.25,54.832,204003,2016-03-14 10:01:18:495
-0.7233,2.5196,9.4891,-0.69,2.52,9.45,-0.01,0.0,0.06,-0.0011,0.0,0.0,-105.31,72.0,61.75,62.7,-14.89,4.18,1036.25,57.09,204503,2016-03-14 10:01:18:995
-0.6922,2.5435,9.537,-0.69,2.52,9.45,0.0,0.01,0.06,0.0,-0.0021,-0.0011,-105.31,72.38,60.56,62.6,-14.89,4.18,1036.28,54.402,205002,2016-03-14 10:01:19:494
-0.6946,2.5172,9.4915,-0.69,2.51,9.45,-0.03,0.02,0.04,0.0011,-0.0011,-0.0011,-105.69,72.69,62.19,62.47,-14.84,4.18,1036.23,58.122,205502,2016-03-14 10:01:19:994
-0.7257,2.5076,9.4651,-0.69,2.52,9.45,-0.03,0.01,0.04,-0.0011,-0.0021,0.0,-105.69,73.06,61.38,62.41,-14.89,4.18,1036.41,55.074,206002,2016-03-14 10:01:20:494
-0.7281,2.4932,9.4579,-0.7,2.51,9.46,-0.02,0.02,0.05,0.0,-0.0011,-0.0011,-106.06,72.69,62.19,62.45,-14.82,4.23,1036.28,55.245,206503,2016-03-14 10:01:20:995
-0.7472,2.5339,9.5322,-0.69,2.51,9.45,-0.02,0.01,0.05,0.0053,-0.0043,0.0011,-105.31,72.69,61.38,62.13,-14.84,4.18,1036.3,55.525,207003,2016-03-14 10:01:21:495
-0.7137,2.5124,9.5322,-0.69,2.52,9.45,-0.03,0.01,0.03,-0.0043,-0.0032,-0.0011,-105.69,72.69,61.38,62.41,-14.89,4.18,1036.13,58.149,207503,2016-03-14 10:01:21:995
-0.7065,2.6154,9.4819,-0.69,2.57,9.44,-0.02,0.03,0.04,0.0298,-0.0107,0.0,-106.06,72.38,60.94,62.96,-15.08,4.18,1036.05,55.689,208002,2016-03-14 10:01:22:494
-0.7209,2.5603,9.4531,-0.69,2.56,9.44,0.1,0.0,-0.16,-0.0224,-0.0053,0.0,-105.31,72.38,61.38,62.76,-15.13,4.18,1036.14,56.418,208502,2016-03-14 10:01:22:994
-0.7449,2.5699,9.5944,-0.7,2.53,9.45,-0.04,0.03,0.12,-0.0011,0.0043,0.0,-106.37,74.19,62.19,62.11,-14.95,4.24,1036.19,55.774,209003,2016-03-14 10:01:23:495
-0.7257,2.5411,9.4891,-0.69,2.51,9.45,-0.02,-0.01,0.08,0.0011,0.0032,-0.0021,-105.69,72.0,61.38,62.8,-14.84,4.18,1036.13,54.862,209503,2016-03-14 10:01:23:995
-0.7209,2.5076,9.4915,-0.7,2.51,9.45,-0.01,0.01,0.07,-0.0032,-0.0064,-0.0021,-105.31,73.06,61.38,62.12,-14.84,4.24,1036.17,55.762,210003,2016-03-14 10:01:24:495
-0.7209,2.5196,9.4986,-0.69,2.54,9.45,-0.02,-0.02,0.05,0.0053,-0.0032,-0.0011,-105.69,72.69,61.38,62.45,-14.95,4.18,1036.18,55.323,210502,2016-03-14 10:01:24:994
-0.7161,2.5004,9.5274,-0.69,2.51,9.46,-0.02,-0.02,0.04,-0.0011,0.0,-0.0021,-105.31,71.63,60.56,62.56,-14.84,4.18,1036.18,56.197,211002,2016-03-14 10:01:25:494
-0.7305,2.5267,9.4963,-0.7,2.52,9.45,-0.02,0.03,0.1,-0.0011,-0.0021,0.0,-105.69,72.38,61.75,62.93,-14.89,4.24,1036.27,55.782,211506,2016-03-14 10:01:25:998
-0.7041,2.5603,9.4771,-0.7,2.52,9.45,-0.02,0.03,0.06,-0.0021,0.0032,-0.0011,-105.31,72.0,62.19,62.69,-14.89,4.24,1036.25,54.777,212003,2016-03-14 10:01:26:495
-0.7377,2.5267,9.525,-0.7,2.52,9.45,-0.03,0.01,0.06,0.0,-0.0053,0.0,-105.69,72.69,62.19,62.16,-14.89,4.24,1036.22,55.358,212502,2016-03-14 10:01:26:994
-0.7592,2.5052,9.5202,-0.7,2.52,9.45,-0.02,0.0,0.04,0.0,-0.0021,-0.0011,-105.31,73.06,61.75,62.26,-14.89,4.24,1036.17,56.521,213002,2016-03-14 10:01:27:494
-0.7113,2.5291,9.5034,-0.71,2.51,9.45,-0.01,0.01,0.05,-0.0032,-0.0053,-0.0021,-105.31,72.69,59.75,62.02,-14.83,4.3,1036.17,56.596,213503,2016-03-14 10:01:27:995
-0.7329,2.5172,9.525,-0.71,2.51,9.45,-0.01,0.02,0.04,0.0,-0.0011,0.0,-105.69,72.38,60.56,62.79,-14.83,4.3,1036.14,57.309,214004,2016-03-14 10:01:28:496
-0.7161,2.5124,9.4292,-0.71,2.51,9.45,-0.02,0.0,0.1,-0.0075,-0.0021,-0.0011,-106.37,72.69,61.38,62.36,-14.83,4.3,1036.18,57.068,214502,2016-03-14 10:01:28:994
-0.7664,2.5076,9.4819,-0.71,2.51,9.45,-0.04,0.0,0.03,0.0043,-0.0032,-0.0011,-105.69,72.69,62.13,62.42,-14.78,4.3,1036.22,57.771,215002,2016-03-14 10:01:29:494
-0.752,2.5004,9.4747,-0.7,2.5,9.46,-0.01,0.02,0.01,-0.0043,-0.0011,0.0,-105.69,73.06,60.94,62.7,-14.76,4.23,1036.22,56.602,215502,2016-03-14 10:01:29:994
-0.7233,2.5148,9.4651,-0.7,2.51,9.46,-0.03,0.01,0.05,0.0,-0.0043,-0.0011,-105.69,73.06,62.19,62.45,-14.82,4.23,1036.19,54.035,216002,2016-03-14 10:01:30:494
-0.7353,2.5124,9.4843,-0.7,2.5,9.46,-0.01,0.01,0.02,0.0021,0.0011,-0.0011,-105.69,73.06,61.0,62.32,-14.76,4.23,1036.27,55.78,216502,2016-03-14 10:01:30:994
-0.7592,2.5004,9.4915,-0.7,2.5,9.46,-0.06,0.01,0.09,-0.0107,0.0,-0.0011,-104.56,72.38,60.56,62.51,-14.76,4.23,1036.25,55.11,217003,2016-03-14 10:01:31:495
-0.7449,2.5028,9.513,-0.7,2.5,9.46,-0.06,0.02,0.02,-0.0053,-0.0011,0.0,-105.31,72.38,61.38,62.51,-14.76,4.23,1036.28,55.313,217503,2016-03-14 10:01:31:995
-0.7137,2.5267,9.4891,-0.7,2.5,9.46,-0.01,0.03,0.05,-0.0011,0.0021,0.0,-106.37,72.38,61.38,62.75,-14.76,4.23,1036.32,56.501,218002,2016-03-14 10:01:32:494
-0.752,2.522,9.4986,-0.7,2.5,9.46,-0.03,-0.01,0.05,-0.0032,0.0,0.0011,-105.31,72.38,61.75,62.61,-14.76,4.23,1036.21,56.785,218502,2016-03-14 10:01:32:994
-0.7425,2.5172,9.5346,-0.71,2.5,9.46,-0.05,-0.01,0.04,-0.0021,0.0,-0.0011,-105.31,72.38,61.38,62.5,-14.76,4.29,1036.26,55.083,219003,2016-03-14 10:01:33:495
-0.7233,2.522,9.4891,-0.71,2.5,9.46,0.01,0.02,0.07,-0.0011,0.0032,-0.0011,-104.56,72.69,62.13,62.17,-14.76,4.29,1036.25,57.72,219503,2016-03-14 10:01:33:995
-0.7161,2.5315,9.5561,-0.7,2.51,9.46,-0.03,0.0,0.05,-0.0043,-0.0021,-0.0032,-106.06,72.69,62.19,62.45,-14.82,4.23,1036.26,57.131,220002,2016-03-14 10:01:34:494
-0.7544,2.4956,9.4819,-0.7,2.5,9.46,-0.01,0.01,0.06,0.0021,-0.0011,-0.0032,-105.31,73.06,61.38,62.08,-14.76,4.23,1036.19,54.565,220502,2016-03-14 10:01:34:994
-0.7496,2.5291,9.513,-0.71,2.5,9.46,-0.04,0.03,0.06,-0.0021,-0.0053,0.0,-105.31,72.69,60.94,62.17,-14.76,4.23,1036.22,54.354,221003,2016-03-14 10:01:35:495
-0.7425,2.4932,9.5154,-0.71,2.5,9.46,-0.01,0.01,0.05,-0.0011,-0.0011,0.0,-104.94,73.06,61.75,62.17,-14.76,4.29,1036.21,55.444,221502,2016-03-14 10:01:35:994
-0.7377,2.5028,9.5322,-0.7,2.5,9.46,-0.06,-0.01,0.05,-0.0032,-0.0053,0.0,-105.31,72.69,61.38,62.08,-14.76,4.23,1036.14,55.674,222002,2016-03-14 10:01:36:494
-0.7377,2.5052,9.5082,-0.71,2.5,9.46,-0.03,0.01,0.06,0.0053,-0.0011,0.0011,-104.94,72.69,60.94,62.07,-14.76,4.29,1036.12,55.223,222502,2016-03-14 10:01:36:994
-0.6946,2.51,9.501,-0.7,2.51,9.45,-0.04,0.0,0.05,-0.0021,-0.0011,-0.0032,-104.94,72.0,60.56,62.56,-14.84,4.24,1036.19,56.308,223002,2016-03-14 10:01:37:494
-0.7353,2.5531,9.5106,-0.7,2.51,9.45,-0.04,0.01,0.05,-0.0032,-0.0032,0.0,-104.56,72.69,60.56,62.12,-14.84,4.24,1036.26,55.681,223502,2016-03-14 10:01:37:994
-0.7065,2.5124,9.4843,-0.7,2.5,9.46,0.0,0.01,0.03,-0.0032,-0.0011,0.0,-105.69,73.06,61.38,62.31,-14.76,4.29,1036.19,56.339,224002,2016-03-14 10:01:38:494
-0.7425,2.5052,9.4915,-0.7,2.5,9.46,-0.02,0.0,0.02,-0.0021,-0.0043,-0.0011,-104.94,72.69,60.94,62.08,-14.76,4.23,1036.17,54.995,224502,2016-03-14 10:01:38:994
-0.7065,2.5172,9.5058,-0.7,2.5,9.46,-0.02,-0.01,0.03,0.0011,0.0,-0.0032,-106.06,72.69,60.56,62.32,-14.76,4.23,1036.17,58.575,225004,2016-03-14 10:01:39:496
-0.7712,2.4812,9.5058,-0.7,2.5,9.46,-0.03,-0.02,-0.03,0.0032,-0.0075,-0.0011,-105.31,72.69,61.75,62.17,-14.76,4.23,1036.22,55.622,225503,2016-03-14 10:01:39:995
-0.7065,2.498,9.5202,-0.71,2.51,9.45,-0.05,0.02,0.05,0.0128,-0.0032,-0.0011,-105.69,72.38,60.94,62.79,-14.83,4.3,1036.22,56.108,226002,2016-03-14 10:01:40:494
-0.7257,2.5842,9.6447,-0.71,2.53,9.45,-0.06,0.05,0.04,0.017,0.0405,-0.0107,-105.69,72.69,61.38,62.44,-14.95,4.3,1036.21,56.504,226503,2016-03-14 10:01:40:995
-0.7544,2.4956,9.4723,-0.74,2.53,9.44,0.0,-0.03,0.06,0.0373,-0.0085,0.0032,-104.94,72.69,61.38,62.18,-14.94,4.48,1036.21,60.575,227002,2016-03-14 10:01:41:494
-0.7449,2.5746,9.525,-0.71,2.57,9.44,0.02,0.06,0.03,-0.0085,0.033,-0.0011,-105.31,72.38,60.94,62.79,-15.19,4.3,1036.26,59.724,227502,2016-03-14 10:01:41:994
-0.7137,2.6225,9.3933,-0.72,2.57,9.44,0.02,0.01,-0.04,0.0,0.0085,0.0,-105.31,72.38,61.38,62.78,-15.19,4.36,1036.25,57.869,228002,2016-03-14 10:01:42:494
-0.7568,2.4908,9.5585,-0.73,2.56,9.44,0.04,0.05,0.02,0.0021,-0.0032,-0.0021,-105.69,72.38,62.56,63.18,-15.13,4.42,1036.25,58.828,228504,2016-03-14 10:01:42:996
-0.7568,2.5339,9.5322,-0.71,2.55,9.44,-0.01,0.04,0.09,-0.0128,-0.0043,-0.0032,-104.94,72.69,61.75,62.38,-15.08,4.3,1036.25,55.887,229002,2016-03-14 10:01:43:494
-0.7425,2.5483,9.5418,-0.72,2.53,9.45,-0.03,-0.01,0.04,0.0,-0.0043,-0.0011,-105.31,72.69,61.75,62.28,-14.95,4.36,1036.25,58.727,229503,2016-03-14 10:01:43:995
-0.7784,2.5435,9.4627,-0.72,2.52,9.45,0.02,0.01,0.02,0.0011,-0.0053,-0.0011,-105.69,72.69,61.75,62.49,-14.89,4.36,1036.25,55.83,230003,2016-03-14 10:01:44:495
-0.7281,2.5387,9.5058,-0.73,2.52,9.45,-0.03,0.02,0.09,-0.0043,-0.0021,-0.0011,-105.31,72.69,62.56,62.34,-14.89,4.42,1036.23,54.471,230503,2016-03-14 10:01:44:995
-0.7472,2.51,9.5034,-0.72,2.52,9.45,-0.01,0.0,0.08,-0.0053,-0.0032,-0.0011,-105.69,72.69,60.94,62.02,-14.83,4.36,1036.22,57.71,231002,2016-03-14 10:01:45:494
-0.7496,2.5244,9.4843,-0.72,2.51,9.45,-0.02,0.03,0.07,0.0011,-0.0021,-0.0011,-104.56,72.38,61.38,62.55,-14.83,4.36,1036.15,57.007,231503,2016-03-14 10:01:45:995
-0.7353,2.5315,9.5489,-0.72,2.51,9.45,0.0,0.0,0.06,-0.0021,-0.0011,-0.0011,-106.06,72.69,61.75,62.45,-14.83,4.36,1036.17,55.648,232002,2016-03-14 10:01:46:494
-0.7616,2.5148,9.5106,-0.72,2.51,9.45,-0.01,0.03,0.03,0.0021,0.0011,-0.0011,-105.31,73.06,61.75,62.21,-14.83,4.36,1036.22,53.733,232503,2016-03-14 10:01:46:995
-0.7305,2.5267,9.5418,-0.73,2.51,9.45,-0.03,0.01,0.06,0.0011,-0.0053,-0.0011,-105.69,72.38,62.19,62.88,-14.83,4.36,1036.18,55.284,233002,2016-03-14 10:01:47:494
-0.7353,2.5603,9.4963,-0.73,2.51,9.45,-0.01,0.04,0.11,-0.0021,-0.0032,-0.0011,-104.56,72.38,61.75,62.64,-14.83,4.42,1036.23,57.122,233503,2016-03-14 10:01:47:995
-0.7449,2.5172,9.5609,-0.73,2.51,9.45,-0.01,0.01,0.05,0.0021,-0.0043,0.0,-104.94,72.0,60.56,62.54,-14.83,4.42,1036.19,56.416,234001,2016-03-14 10:01:48:493
-0.7688,2.5387,9.4723,-0.72,2.51,9.45,-0.02,0.03,0.07,-0.0032,-0.0032,-0.0011,-105.69,72.69,61.38,62.36,-14.83,4.36,1036.21,54.693,234502,2016-03-14 10:01:48:994
-0.7281,2.5196,9.513,-0.72,2.51,9.45,-0.01,-0.01,0.01,-0.0011,-0.0032,-0.0011,-105.69,72.69,61.38,62.36,-14.83,4.36,1036.18,54.479,235002,2016-03-14 10:01:49:494
-0.7688,2.5435,9.4699,-0.72,2.51,9.45,-0.02,0.01,0.06,0.0021,-0.0043,-0.0011,-105.69,72.69,60.94,62.36,-14.83,4.36,1036.3,53.878,235502,2016-03-14 10:01:49:994
-0.7425,2.4788,9.5513,-0.72,2.51,9.45,-0.03,0.01,0.02,0.0,0.0011,-0.0021,-105.31,72.38,61.38,62.55,-14.83,4.36,1036.21,55.83,236002,2016-03-14 10:01:50:494
-0.7544,2.5124,9.4915,-0.73,2.51,9.45,-0.01,0.01,0.07,0.0032,-0.0021,-0.0011,-105.69,72.69,60.13,62.25,-14.83,4.42,1036.26,54.233,236503,2016-03-14 10:01:50:995
-0.7425,2.5196,9.5465,-0.72,2.51,9.45,-0.03,0.01,0.0,0.0032,-0.0032,0.0,-105.31,72.69,61.31,62.11,-14.83,4.42,1036.23,57.824,237002,2016-03-14 10:01:51:494
-0.7329,2.5387,9.5034,-0.72,2.51,9.45,-0.02,0.02,0.06,0.0,-0.0032,-0.0011,-105.31,72.69,60.56,62.11,-14.83,4.36,1036.17,55.313,237503,2016-03-14 10:01:51:995
-0.7425,2.5387,9.5178,-0.73,2.51,9.45,0.0,0.02,0.08,-0.0021,-0.0011,-0.0011,-104.56,72.38,60.13,62.64,-14.83,4.42,1036.21,55.069,238002,2016-03-14 10:01:52:494
-0.7784,2.5148,9.4531,-0.72,2.51,9.45,-0.04,0.01,0.01,-0.0011,-0.0032,-0.0011,-105.31,72.38,61.75,62.3,-14.83,4.42,1036.3,57.499,238503,2016-03-14 10:01:52:995
-0.7401,2.5291,9.4747,-0.72,2.51,9.45,-0.02,0.03,0.03,0.0011,-0.0043,0.0,-105.31,71.63,62.56,62.74,-14.83,4.36,1036.27,56.78,239002,2016-03-14 10:01:53:494
-0.7712,2.5052,9.4699,-0.72,2.51,9.45,-0.02,0.02,0.03,-0.0011,-0.0011,-0.0021,-105.69,72.0,61.38,62.36,-14.83,4.3,1036.26,55.379,239503,2016-03-14 10:01:53:995
-0.7592,2.5291,9.5178,-0.71,2.51,9.45,-0.04,0.02,0.05,0.0032,-0.0011,-0.0021,-106.06,73.44,60.94,62.32,-14.78,4.3,1036.26,55.922,240003,2016-03-14 10:01:54:495
-0.7425,2.5196,9.4627,-0.71,2.5,9.45,0.0,0.01,0.06,0.0011,-0.0021,0.0011,-105.31,72.38,61.75,62.61,-14.78,4.3,1036.26,53.941,240503,2016-03-14 10:01:54:995
-0.7377,2.498,9.4795,-0.72,2.5,9.45,-0.03,0.01,0.09,0.0011,0.0,-0.0011,-105.69,72.69,60.56,62.94,-14.78,4.36,1036.23,53.946,241003,2016-03-14 10:01:55:495
-0.7496,2.522,9.4699,-0.71,2.51,9.45,-0.03,0.01,0.02,0.0011,-0.0043,-0.0011,-106.06,72.69,60.56,62.32,-14.78,4.36,1036.14,54.794,241503,2016-03-14 10:01:55:995
-0.764,2.5076,9.525,-0.72,2.51,9.45,0.0,0.02,0.08,-0.0032,-0.0075,0.0,-104.94,72.0,60.94,62.11,-14.83,4.36,1036.18,54.169,242002,2016-03-14 10:01:56:494
-0.7257,2.522,9.5274,-0.71,2.51,9.45,-0.04,0.01,0.07,0.0,-0.0043,-0.0011,-105.69,72.38,61.31,62.36,-14.83,4.3,1036.13,54.681,242502,2016-03-14 10:01:56:994
-0.7544,2.5459,9.5202,-0.72,2.51,9.45,-0.04,0.03,0.05,0.0011,-0.0021,-0.0021,-104.94,72.38,60.94,62.55,-14.83,4.36,1036.26,58.474,243002,2016-03-14 10:01:57:494
-0.7401,2.522,9.4747,-0.72,2.51,9.45,-0.03,0.02,0.04,0.0032,-0.0021,-0.0021,-104.94,72.69,60.94,62.11,-14.83,4.36,1036.31,56.916,243502,2016-03-14 10:01:57:994
-0.7233,2.5148,9.501,-0.72,2.51,9.45,-0.02,0.01,0.09,-0.0043,-0.0021,-0.0011,-104.94,72.69,61.75,62.21,-14.83,4.36,1036.3,56.746,244002,2016-03-14 10:01:58:494
-0.7329,2.5411,9.525,-0.72,2.5,9.45,0.0,0.02,0.05,0.0011,-0.0053,0.0,-104.94,72.38,60.94,62.51,-14.78,4.36,1036.3,55.088,244502,2016-03-14 10:01:58:994
-0.7664,2.5291,9.537,-0.73,2.5,9.45,-0.01,0.04,0.12,0.0011,-0.0064,-0.0011,-105.31,72.0,60.13,62.41,-14.78,4.42,1036.3,59.585,245003,2016-03-14 10:01:59:495
-0.7113,2.5339,9.4939,-0.73,2.5,9.45,-0.04,0.01,0.06,0.0021,-0.0021,-0.0011,-104.56,72.0,61.38,62.5,-14.78,4.42,1036.34,56.39,245502,2016-03-14 10:01:59:994
-0.7449,2.5124,9.4986,-0.73,2.5,9.45,-0.02,0.01,0.05,0.0032,-0.0021,0.0011,-104.94,73.06,61.38,62.07,-14.78,4.42,1036.27,54.673,246002,2016-03-14 10:02:00:494
-0.7449,2.5172,9.4963,-0.72,2.51,9.45,-0.02,0.02,0.04,-0.0011,0.0,0.0,-104.94,72.0,60.56,62.45,-14.83,4.42,1036.3,55.934,246502,2016-03-14 10:02:00:994
-0.7401,2.5435,9.5058,-0.72,2.51,9.45,-0.03,0.02,0.09,-0.0011,0.0,-0.0011,-104.94,72.38,61.38,62.55,-14.83,4.36,1036.34,59.309,247003,2016-03-14 10:02:01:495
-0.752,2.5387,9.5298,-0.72,2.51,9.45,-0.01,0.01,0.05,0.0011,-0.0011,-0.0011,-104.94,73.06,60.13,62.02,-14.83,4.36,1036.31,57.209,247503,2016-03-14 10:02:01:995
-0.7592,2.5291,9.4843,-0.72,2.51,9.45,-0.02,0.02,0.04,-0.0053,0.0011,-0.0011,-104.94,72.0,61.31,62.55,-14.83,4.36,1036.32,54.909,248002,2016-03-14 10:02:02:494
-0.7329,2.5579,9.537,-0.72,2.51,9.45,-0.06,0.01,0.1,-0.0021,-0.0011,-0.0032,-105.31,71.63,62.13,62.64,-14.83,4.36,1036.32,58.494,248502,2016-03-14 10:02:02:994
-0.7401,2.5411,9.513,-0.73,2.51,9.45,-0.01,0.03,0.06,-0.0021,-0.0032,-0.0011,-105.31,73.44,61.75,62.2,-14.83,4.42,1036.31,56.414,249002,2016-03-14 10:02:03:494
-0.7712,2.5148,9.513,-0.73,2.51,9.45,-0.02,0.02,0.05,-0.0021,-0.0011,-0.0011,-104.94,72.69,62.13,62.2,-14.83,4.42,1036.3,59.86,249502,2016-03-14 10:02:03:994
-0.7568,2.5267,9.5202,-0.73,2.51,9.45,-0.01,0.03,0.06,-0.0011,-0.0021,0.0011,-105.31,72.69,60.94,62.11,-14.83,4.42,1036.32,55.613,250003,2016-03-14 10:02:04:495
-0.7401,2.5148,9.5058,-0.72,2.51,9.45,-0.01,0.0,0.04,0.0011,0.0,-0.0021,-105.31,72.69,61.38,62.11,-14.83,4.36,1036.27,55.805,250502,2016-03-14 10:02:04:994
-0.7784,2.5291,9.4819,-0.72,2.51,9.45,0.01,0.03,0.04,0.0021,0.0,-0.0011,-104.94,72.0,61.38,62.55,-14.83,4.36,1036.32,54.588,251002,2016-03-14 10:02:05:494
-0.7616,2.5507,9.5346,-0.73,2.51,9.45,-0.04,0.01,0.01,-0.0032,-0.0011,-0.0011,-105.69,72.0,61.75,62.88,-14.83,4.42,1036.32,54.031,251502,2016-03-14 10:02:05:994
-0.7353,2.5267,9.5058,-0.73,2.5,9.45,0.0,0.02,0.05,-0.0011,-0.0053,-0.0011,-104.94,72.38,60.94,62.5,-14.78,4.42,1036.27,54.657,252002,2016-03-14 10:02:06:494
-0.752,2.5172,9.4675,-0.73,2.51,9.45,-0.02,0.0,0.04,0.0,-0.0032,0.0,-106.06,72.69,61.38,62.35,-14.83,4.42,1036.32,54.54,252502,2016-03-14 10:02:06:994
-0.7664,2.5315,9.4915,-0.72,2.51,9.45,-0.02,0.0,0.01,0.0032,-0.0021,-0.0011,-105.69,72.38,60.94,62.79,-14.83,4.36,1036.27,55.409,253002,2016-03-14 10:02:07:494
-0.7472,2.5411,9.5082,-0.73,2.52,9.45,-0.01,0.03,0.05,0.0021,-0.0021,-0.0011,-104.94,73.06,60.94,62.14,-14.89,4.42,1036.26,59.286,253502,2016-03-14 10:02:07:994
-0.7736,2.498,9.4891,-0.73,2.52,9.45,0.0,0.02,0.07,-0.0011,-0.0011,0.0,-104.94,72.38,61.75,62.68,-14.89,4.42,1036.28,54.101,254003,2016-03-14 10:02:08:495
-0.7592,2.5579,9.4986,-0.72,2.52,9.45,-0.04,0.0,0.03,-0.0032,-0.0021,-0.0011,-105.31,72.38,60.13,62.49,-14.89,4.36,1036.32,57.577,254502,2016-03-14 10:02:08:994
-0.7329,2.5052,9.5322,-0.73,2.51,9.45,0.0,-0.01,0.07,-0.0032,0.0032,-0.0032,-104.94,73.44,60.56,62.11,-14.83,4.42,1036.35,56.396,255002,2016-03-14 10:02:09:494
-0.752,2.5507,9.4963,-0.72,2.51,9.45,-0.02,0.02,0.03,-0.0021,0.0021,-0.0011,-104.56,73.44,62.13,62.21,-14.83,4.36,1036.35,57.229,255502,2016-03-14 10:02:09:994
-0.7065,2.5411,9.5537,-0.72,2.51,9.45,-0.05,0.01,0.04,-0.0032,-0.0021,-0.0011,-105.69,72.69,61.31,62.36,-14.83,4.36,1036.35,56.391,256003,2016-03-14 10:02:10:495
-0.7449,2.522,9.4963,-0.72,2.51,9.45,-0.02,0.01,0.03,0.0011,-0.0032,-0.0021,-105.31,73.06,61.75,62.21,-14.83,4.36,1036.36,55.165,256503,2016-03-14 10:02:10:995
-0.7688,2.5675,9.5705,-0.73,2.51,9.45,-0.01,0.03,0.07,0.0011,-0.0043,0.0,-105.31,73.06,60.94,62.11,-14.83,4.42,1036.38,54.577,257002,2016-03-14 10:02:11:494
-0.7425,2.5315,9.501,-0.74,2.51,9.45,0.0,-0.02,0.04,-0.0021,0.0,-0.0011,-105.31,72.38,62.56,62.77,-14.89,4.42,1036.39,54.328,257503,2016-03-14 10:02:11:995
-0.7257,2.5531,9.5178,-0.74,2.51,9.45,0.02,0.04,0.06,0.0032,0.0,0.0,-104.56,72.69,61.75,62.2,-14.83,4.48,1036.41,54.783,258003,2016-03-14 10:02:12:495
-0.7496,2.5291,9.4651,-0.73,2.51,9.45,-0.04,0.01,0.01,0.0,-0.0011,0.0,-105.69,72.69,61.75,62.45,-14.83,4.42,1036.4,54.991,258502,2016-03-14 10:02:12:994
-0.7568,2.5315,9.5681,-0.74,2.51,9.45,0.02,0.03,0.07,0.0021,-0.0043,-0.0011,-105.69,72.69,60.94,62.34,-14.83,4.48,1036.36,55.055,259002,2016-03-14 10:02:13:494
-0.7568,2.5435,9.5489,-0.73,2.51,9.45,-0.03,0.03,0.09,0.0021,-0.0032,-0.0011,-104.94,73.06,60.56,62.54,-14.83,4.42,1036.36,57.464,259502,2016-03-14 10:02:13:994
-0.7808,2.5291,9.5442,-0.72,2.52,9.45,-0.03,0.01,0.02,-0.0032,-0.0032,0.0,-105.31,72.69,61.31,62.15,-14.89,4.36,1036.36,55.89,260003,2016-03-14 10:02:14:495
-0.7496,2.5244,9.5106,-0.71,2.51,9.45,-0.03,0.01,0.06,-0.0011,-0.0043,-0.0011,-105.31,73.06,61.31,62.12,-14.83,4.3,1036.35,56.254,260502,2016-03-14 10:02:14:994
-0.7233,2.5387,9.513,-0.71,2.51,9.45,-0.02,0.01,0.04,0.0,-0.0032,0.0,-104.94,72.69,60.56,62.12,-14.83,4.3,1036.38,56.487,261003,2016-03-14 10:02:15:495
-0.7449,2.5004,9.5082,-0.71,2.52,9.45,-0.03,-0.01,0.01,0.0,-0.0011,0.0,-106.37,72.0,62.56,63.03,-14.89,4.3,1036.34,57.557,261502,2016-03-14 10:02:15:994
-0.7472,2.5411,9.5226,-0.72,2.52,9.45,-0.05,0.02,0.01,-0.0021,-0.0043,-0.0011,-105.31,72.38,61.75,62.68,-14.89,4.36,1036.36,54.401,262002,2016-03-14 10:02:16:494
-0.7281,2.5363,9.5298,-0.72,2.51,9.45,-0.01,0.02,0.08,-0.0011,-0.0021,-0.0011,-105.69,72.38,60.56,62.79,-14.83,4.36,1036.4,56.109,262502,2016-03-14 10:02:16:994
-0.7449,2.5315,9.4843,-0.72,2.51,9.45,-0.02,0.01,0.02,-0.0021,-0.0043,-0.0011,-105.31,72.38,61.75,62.64,-14.83,4.36,1036.4,55.125,263003,2016-03-14 10:02:17:495
-0.7712,2.5124,9.4939,-0.72,2.51,9.45,0.02,0.02,0.08,0.0,-0.0021,-0.0011,-104.94,72.38,60.56,62.55,-14.83,4.36,1036.35,55.128,263503,2016-03-14 10:02:17:995
-0.7401,2.5555,9.5058,-0.71,2.51,9.45,-0.03,0.02,0.03,0.0,0.0032,-0.0011,-104.94,72.69,61.38,62.12,-14.83,4.3,1036.35,53.781,264002,2016-03-14 10:02:18:494
-0.7496,2.5124,9.4627,-0.71,2.51,9.45,-0.05,0.0,0.08,0.0011,0.0,-0.0021,-105.31,73.06,61.38,62.12,-14.83,4.3,1036.38,54.245,264503,2016-03-14 10:02:18:995
-0.7449,2.5291,9.4627,-0.73,2.51,9.45,-0.03,0.04,0.06,0.0021,-0.0032,0.0,-105.31,72.69,60.94,62.2,-14.83,4.42,1036.4,58.599,265002,2016-03-14 10:02:19:494
-0.776,2.4956,9.4005,-0.72,2.51,9.45,-0.03,0.01,0.05,0.0,-0.0011,0.0,-104.56,72.69,61.31,62.11,-14.83,4.36,1036.39,54.553,265503,2016-03-14 10:02:19:995
-0.764,2.5387,9.5034,-0.73,2.51,9.45,-0.02,0.0,0.03,0.0011,-0.0011,-0.0011,-105.31,72.69,62.94,62.3,-14.83,4.42,1036.36,54.887,266002,2016-03-14 10:02:20:494
-0.7329,2.5651,9.5465,-0.73,2.52,9.45,-0.04,0.02,0.01,0.0011,-0.0032,-0.0011,-105.31,72.69,62.13,62.24,-14.89,4.42,1036.32,54.818,266503,2016-03-14 10:02:20:995
-0.752,2.7088,9.4627,-0.73,2.56,9.44,0.03,0.13,0.03,0.0021,-0.0021,-0.0011,-105.31,71.63,62.13,62.84,-15.13,4.42,1036.36,54.749,267002,2016-03-14 10:02:21:494
-0.7568,2.6417,9.4843,-0.73,2.57,9.43,0.02,0.06,0.04,0.0021,0.0011,-0.0011,-105.31,73.06,61.75,62.45,-15.2,4.43,1036.31,54.733,267503,2016-03-14 10:02:21:995
-0.764,2.6058,9.4484,-0.73,2.59,9.43,0.0,0.03,0.03,-0.0011,-0.0043,0.0,-105.31,72.75,60.94,62.83,-15.26,4.43,1036.3,54.431,268002,2016-03-14 10:02:22:494
-0.7377,2.6465,9.4316,-0.72,2.6,9.43,-0.02,0.05,-0.01,0.0011,-0.0021,-0.0011,-105.69,72.38,61.75,63.25,-15.37,4.37,1036.36,57.441,268503,2016-03-14 10:02:22:995
-0.7568,2.6537,9.5226,-0.72,2.61,9.43,-0.02,0.04,0.09,0.0,-0.0021,-0.0021,-105.31,72.75,61.75,62.61,-15.43,4.37,1036.35,55.65,269002,2016-03-14 10:02:23:494
-0.752,2.6297,9.4723,-0.72,2.61,9.42,-0.01,0.01,0.05,0.0,-0.0021,-0.0011,-104.94,73.06,61.31,62.52,-15.44,4.37,1036.36,54.928,269503,2016-03-14 10:02:23:995
-0.7808,2.6393,9.4843,-0.72,2.62,9.42,-0.02,0.01,0.02,0.0011,-0.0021,0.0,-105.31,71.63,62.94,63.2,-15.5,4.37,1036.38,56.636,270002,2016-03-14 10:02:24:494
-0.7185,2.6704,9.4699,-0.72,2.62,9.42,-0.01,0.01,-0.01,0.0,-0.0011,0.0011,-104.94,72.0,62.13,63.1,-15.5,4.37,1036.39,56.797,270502,2016-03-14 10:02:24:994
-0.7496,2.6585,9.3957,-0.72,2.63,9.42,-0.02,0.02,0.0,-0.0011,0.0,-0.0021,-104.56,72.38,61.75,63.14,-15.56,4.37,1036.38,54.518,271002,2016-03-14 10:02:25:494
-0.7329,2.6345,9.5154,-0.72,2.63,9.42,-0.03,-0.02,0.0,0.0011,0.0,-0.0021,-105.31,73.06,62.94,62.8,-15.56,4.37,1036.38,57.459,271502,2016-03-14 10:02:25:994
-0.7401,2.6609,9.3765,-0.72,2.63,9.42,-0.02,0.02,0.02,0.0021,-0.0032,-0.0011,-104.56,73.44,63.75,62.8,-15.56,4.37,1036.36,56.583,272002,2016-03-14 10:02:26:494
-0.7353,2.6968,9.3981,-0.72,2.65,9.42,-0.01,0.05,-0.01,0.0011,-0.0021,-0.0011,-104.19,72.69,62.94,62.6,-15.61,4.37,1036.36,57.8,272502,2016-03-14 10:02:26:994
-0.7472,2.6728,9.422,-0.72,2.66,9.41,-0.01,0.05,0.08,-0.0011,0.0,-0.0021,-104.94,73.44,63.31,62.93,-15.74,4.38,1036.35,54.884,273003,2016-03-14 10:02:27:495
-0.7233,2.7375,9.4675,-0.72,2.66,9.41,-0.04,0.05,0.05,-0.0043,-0.0011,0.0011,-104.56,73.81,62.94,62.49,-15.74,4.38,1036.39,55.128,273502,2016-03-14 10:02:27:994
-0.7856,2.7112,9.5154,-0.72,2.68,9.41,-0.06,0.02,0.12,0.0021,0.0,-0.0011,-104.94,74.56,63.75,62.2,-15.8,4.38,1036.35,58.941,274003,2016-03-14 10:02:28:495
-0.6706,2.6657,9.6016,-0.71,2.67,9.41,0.04,-0.04,0.03,0.0011,-0.0021,-0.0011,-104.56,74.88,63.75,62.21,-15.8,4.31,1036.38,57.998,274502,2016-03-14 10:02:28:994
-0.7904,2.7327,9.4819,-0.72,2.68,9.41,-0.04,0.04,0.03,0.0021,0.0032,-0.0021,-105.69,74.88,62.56,62.35,-15.8,4.31,1036.41,57.555,275002,2016-03-14 10:02:29:494
-0.7832,2.6609,9.4747,-0.73,2.68,9.41,-0.04,0.0,0.13,0.0,-0.0011,-0.0021,-104.19,74.88,62.13,61.78,-15.85,4.44,1036.36,57.942,275502,2016-03-14 10:02:29:994
-0.7305,2.6561,9.6471,-0.72,2.66,9.41,0.02,-0.01,0.25,-0.0021,-0.0043,-0.0011,-104.94,74.56,62.13,61.96,-15.74,4.38,1036.38,55.95,276002,2016-03-14 10:02:30:494
-0.8335,2.498,9.6136,-0.73,2.63,9.42,-0.07,-0.08,-0.05,0.0032,0.0021,0.0011,-104.56,74.88,62.13,61.87,-15.61,4.43,1036.39,54.691,276502,2016-03-14 10:02:30:994
-0.7089,2.4286,9.4747,-0.72,2.57,9.44,0.01,-0.15,0.04,0.0032,-0.0021,0.0,-104.94,76.38,61.75,61.24,-15.31,4.43,1036.43,57.36,277002,2016-03-14 10:02:31:494
-0.7616,2.3854,9.5418,-0.72,2.53,9.45,0.0,-0.15,0.02,0.0,0.0,0.0,-104.19,74.88,60.94,61.37,-15.0,4.36,1036.45,55.449,277502,2016-03-14 10:02:31:994
-0.788,2.2872,9.5801,-0.72,2.47,9.46,-0.07,-0.18,0.12,0.0,-0.0032,-0.0011,-103.87,75.25,61.31,60.88,-14.65,4.35,1036.45,55.378,278002,2016-03-14 10:02:32:494
-0.7568,2.3232,9.4915,-0.73,2.43,9.47,-0.07,-0.12,0.1,-0.0021,0.0021,0.0,-104.56,75.25,61.31,60.93,-14.35,4.41,1036.48,57.201,278502,2016-03-14 10:02:32:994
-0.764,2.4645,9.5082,-0.74,2.41,9.48,-0.07,0.05,-0.05,-0.0032,0.0032,-0.0032,-103.87,74.19,60.5,61.02,-14.22,4.4,1036.45,56.857,279002,2016-03-14 10:02:33:494
-0.7472,2.4836,9.4675,-0.73,2.43,9.47,0.03,0.04,0.07,-0.0011,0.0011,-0.0011,-103.5,74.88,61.31,60.39,-14.29,4.41,1036.44,55.352,279502,2016-03-14 10:02:33:994
-0.8215,2.6082,9.4124,-0.74,2.47,9.46,-0.07,0.13,-0.05,0.0,-0.0021,-0.0011,-103.87,75.25,60.94,60.79,-14.53,4.47,1036.38,57.296,280003,2016-03-14 10:02:34:495
-0.7832,2.6609,9.422,-0.75,2.5,9.45,-0.02,0.16,0.03,0.0011,-0.0032,-0.0032,-103.5,74.19,60.94,61.12,-14.77,4.54,1036.39,56.453,280503,2016-03-14 10:02:34:995
-0.7281,2.6225,9.5489,-0.76,2.53,9.44,0.0,0.06,0.02,0.0011,-0.0043,-0.0021,-103.87,74.19,60.5,61.49,-14.96,4.6,1036.35,55.298,281002,2016-03-14 10:02:35:494
-0.7305,2.6417,9.4388,-0.74,2.55,9.44,0.01,0.08,-0.01,0.0011,0.0011,0.0011,-103.87,74.56,60.94,61.15,-15.07,4.48,1036.39,55.187,281502,2016-03-14 10:02:35:994
-0.7496,2.6609,9.4316,-0.75,2.57,9.43,-0.03,0.1,-0.05,0.0021,0.0,-0.0021,-103.5,73.81,60.13,61.31,-15.2,4.55,1036.38,56.394,282002,2016-03-14 10:02:36:494
-0.7784,2.5723,9.4986,-0.74,2.57,9.44,-0.06,-0.04,0.12,0.0,-0.0064,-0.0021,-104.56,73.81,60.5,61.91,-15.2,4.49,1036.38,55.357,282502,2016-03-14 10:02:36:994
-0.6946,2.5723,9.5513,-0.73,2.57,9.44,0.04,0.0,0.12,0.0011,-0.0011,-0.0021,-104.94,74.56,61.31,61.48,-15.19,4.42,1036.34,54.865,283003,2016-03-14 10:02:37:495
-0.8886,2.6633,9.4819,-0.74,2.58,9.43,-0.14,0.06,-0.04,0.0011,0.0043,-0.0011,-104.56,73.06,61.31,62.35,-15.2,4.49,1036.3,53.808,283503,2016-03-14 10:02:37:995
-0.7784,2.6465,9.4915,-0.76,2.61,9.42,-0.05,0.12,0.18,0.0011,-0.0064,0.0,-104.19,73.44,59.69,62.15,-15.44,4.61,1036.3,57.202,284002,2016-03-14 10:02:38:494
-0.6874,2.5363,9.3502,-0.73,2.6,9.43,0.09,-0.09,-0.03,0.0011,-0.0021,-0.0021,-104.94,74.19,61.31,62.03,-15.37,4.43,1036.27,55.494,284503,2016-03-14 10:02:38:995
-0.6993,2.692,9.5465,-0.72,2.6,9.43,-0.06,0.11,0.16,0.0021,-0.0011,0.0,-104.56,73.81,59.75,61.94,-15.37,4.37,1036.23,57.542,285003,2016-03-14 10:02:39:495
-0.788,2.6273,9.3406,-0.72,2.62,9.42,-0.05,0.02,-0.01,-0.0021,-0.0011,-0.0011,-105.31,73.81,61.31,62.12,-15.5,4.37,1036.3,56.727,285503,2016-03-14 10:02:39:995
-0.752,2.6681,9.4891,-0.74,2.61,9.42,0.0,0.05,0.07,-0.0011,-0.0096,0.0,-104.19,74.88,61.31,61.4,-15.44,4.43,1036.31,56.133,286002,2016-03-14 10:02:40:494
-0.7377,2.6369,9.5226,-0.72,2.61,9.42,-0.02,0.05,0.12,-0.0043,-0.0011,-0.0011,-105.69,74.19,60.13,62.23,-15.44,4.37,1036.31,55.732,286502,2016-03-14 10:02:40:994
-0.8191,2.6178,9.5298,-0.72,2.61,9.43,-0.05,0.05,0.05,-0.0032,-0.0021,0.0,-105.31,74.19,59.69,61.98,-15.43,4.37,1036.27,55.481,287002,2016-03-14 10:02:41:494
-0.7425,2.6704,9.6184,-0.72,2.61,9.42,0.01,0.04,0.07,0.0032,-0.0053,-0.0011,-106.06,73.06,59.75,62.66,-15.44,4.37,1036.28,54.457,287503,2016-03-14 10:02:41:995
-0.7425,2.6417,9.4675,-0.71,2.61,9.42,-0.01,0.03,0.05,-0.0011,0.0021,-0.0011,-106.06,73.06,60.5,62.77,-15.44,4.31,1036.28,54.294,288002,2016-03-14 10:02:42:494
-0.6993,2.6321,9.434,-0.72,2.61,9.43,-0.01,0.0,0.01,-0.0011,-0.0021,0.0,-105.31,73.44,61.31,62.51,-15.43,4.37,1036.3,54.178,288503,2016-03-14 10:02:42:995
-0.7065,2.5962,9.4316,-0.71,2.62,9.42,0.03,0.02,0.02,-0.0021,-0.0011,-0.0032,-105.69,74.56,62.13,62.05,-15.5,4.31,1036.32,57.5,289003,2016-03-14 10:02:43:495
-0.7017,2.6489,9.6208,-0.7,2.62,9.42,-0.04,0.03,0.22,0.0,-0.0043,-0.0021,-104.94,75.25,62.5,61.9,-15.49,4.25,1036.3,55.582,289502,2016-03-14 10:02:43:994
-0.7329,2.6704,9.5681,-0.71,2.62,9.42,-0.04,0.05,0.14,-0.0032,-0.0053,-0.0011,-104.56,75.25,61.31,61.7,-15.5,4.31,1036.3,56.469,290002,2016-03-14 10:02:44:494
-0.7736,2.6489,9.4986,-0.71,2.62,9.42,0.02,0.04,0.1,-0.0021,0.0032,-0.0021,-104.56,74.88,60.5,61.7,-15.5,4.31,1036.32,55.055,290502,2016-03-14 10:02:44:994
-0.7449,2.6154,9.4939,-0.72,2.62,9.42,-0.04,-0.02,0.06,-0.0021,-0.0011,-0.0011,-104.56,74.56,60.5,61.7,-15.5,4.37,1036.35,54.999,291002,2016-03-14 10:02:45:494
-0.7544,2.6465,9.4891,-0.73,2.62,9.42,-0.03,0.01,0.04,0.0021,0.0,-0.0011,-104.19,74.19,61.69,61.97,-15.5,4.43,1036.36,58.52,291502,2016-03-14 10:02:45:994
-0.752,2.589,9.3717,-0.73,2.62,9.42,-0.01,-0.03,-0.05,-0.0043,0.0,0.0011,-103.87,74.56,60.5,61.48,-15.56,4.43,1036.36,54.41,292002,2016-03-14 10:02:46:494
-0.7928,2.6106,9.3789,-0.74,2.61,9.42,-0.01,0.01,0.1,0.0,-0.0043,0.0,-104.56,75.25,60.88,61.65,-15.44,4.49,1036.36,53.778,292503,2016-03-14 10:02:46:995
-0.7544,2.6154,9.434,-0.71,2.6,9.43,-0.04,0.01,0.06,0.017,-0.0053,-0.0011,-104.19,74.19,60.13,61.79,-15.37,4.37,1036.34,56.643,293003,2016-03-14 10:02:47:495
-0.6491,2.6657,9.4484,-0.72,2.66,9.41,0.0,0.03,0.22,0.0107,-0.0192,0.0021,-104.56,72.75,60.94,62.72,-15.74,4.38,1036.34,58.115,293502,2016-03-14 10:02:47:994
-0.7592,2.7519,9.5489,-0.74,2.67,9.41,-0.08,0.07,0.17,0.0224,0.0437,0.0043,-105.31,73.06,60.94,62.75,-15.79,4.5,1036.32,56.346,294003,2016-03-14 10:02:48:495
-0.7999,2.7423,9.5489,-0.77,2.8,9.37,-0.01,0.01,0.22,-0.1268,-0.0138,-0.017,-105.69,72.38,62.13,64.07,-16.58,4.7,1036.28,60.113,294503,2016-03-14 10:02:48:995
-0.8143,2.7064,9.4268,-0.74,2.68,9.4,-0.05,0.04,0.01,-0.0085,0.0149,-0.0064,-104.56,73.81,61.75,62.46,-15.85,4.44,1036.28,57.816,295002,2016-03-14 10:02:49:494
-0.7975,2.7255,9.4148,-0.75,2.67,9.41,-0.02,0.04,-0.05,0.0075,0.0043,-0.0053,-105.69,74.56,61.69,62.23,-15.79,4.56,1036.26,57.014,295502,2016-03-14 10:02:49:994
-0.7377,2.7423,9.3789,-0.74,2.71,9.4,0.07,0.03,-0.04,0.0053,-0.0021,-0.0011,-105.31,73.81,61.31,62.48,-16.04,4.5,1036.31,54.76,296003,2016-03-14 10:02:50:495
-0.7377,2.7639,9.5202,-0.74,2.72,9.39,0.03,0.0,-0.08,0.0043,-0.0075,-0.0011,-105.69,74.19,61.75,62.88,-16.11,4.51,1036.28,55.255,296503,2016-03-14 10:02:50:995
-0.8287,2.8022,9.4052,-0.74,2.75,9.38,-0.1,0.07,0.1,0.0043,-0.0011,-0.0032,-106.06,73.81,61.31,62.9,-16.29,4.51,1036.3,54.928,297002,2016-03-14 10:02:51:494
-0.8119,2.7375,9.434,-0.77,2.72,9.39,-0.01,0.04,0.14,0.0085,-0.0043,-0.0021,-105.31,73.44,61.31,62.95,-16.1,4.69,1036.31,55.625,297502,2016-03-14 10:02:51:994
-1.0131,2.7088,8.7346,-0.76,2.73,9.39,-0.13,0.12,-0.49,0.0,-0.0032,-0.0011,-104.19,73.81,61.69,62.42,-16.16,4.57,1036.32,58.363,298002,2016-03-14 10:02:52:494
-0.4359,2.9339,9.7166,-0.75,2.74,9.39,0.26,0.09,1.09,-0.0064,-0.0032,-0.0053,-104.94,73.81,60.5,62.6,-16.22,4.57,1036.36,58.485,298502,2016-03-14 10:02:52:994
-1.0945,2.8644,9.9585,-0.76,2.73,9.39,-0.26,-0.02,0.19,-0.0011,0.0128,-0.0032,-104.56,72.75,60.5,63.04,-16.22,4.57,1036.34,61.086,299002,2016-03-14 10:02:53:494
-0.7832,2.7615,9.8076,-0.76,2.71,9.39,-0.03,-0.09,0.09,0.0053,-0.0021,0.0,-105.69,72.75,60.94,63.16,-16.05,4.63,1036.38,59.625,299503,2016-03-14 10:02:53:995
-0.6826,2.6657,9.2256,-0.74,2.7,9.4,0.14,-0.09,-0.32,0.0032,0.0032,-0.0011,-105.31,72.38,58.88,63.13,-16.03,4.56,1036.38,56.218,300002,2016-03-14 10:02:54:494
-0.7568,2.6968,9.4699,-0.76,2.69,9.4,0.01,0.0,0.06,0.0032,-0.0032,-0.0021,-104.94,71.63,60.94,63.31,-15.98,4.56,1036.36,56.411,300502,2016-03-14 10:02:54:994
-0.8359,2.7016,9.5681,-0.78,2.69,9.4,-0.07,0.02,0.21,-0.0032,-0.0043,-0.0011,-103.5,72.38,60.94,62.77,-15.92,4.74,1036.36,53.926,301003,2016-03-14 10:02:55:495
-0.764,2.7615,9.6926,-0.77,2.67,9.4,-0.03,-0.04,0.04,-0.0011,-0.0085,0.0,-104.56,72.75,60.94,63.04,-15.81,4.74,1036.32,55.062,301502,2016-03-14 10:02:55:994
-0.764,2.692,9.4412,-0.76,2.67,9.41,-0.03,0.03,0.03,0.0053,-0.0032,-0.0011,-104.94,72.75,62.13,62.84,-15.79,4.62,1036.34,59.248,302002,2016-03-14 10:02:56:494
-0.7736,2.7016,9.5106,-0.74,2.67,9.41,0.02,0.02,-0.04,0.0032,-0.0021,-0.0032,-104.94,72.75,62.13,62.85,-15.79,4.5,1036.32,55.036,302503,2016-03-14 10:02:56:995
-0.8742,2.6082,9.2663,-0.74,2.67,9.41,-0.05,-0.1,-0.01,-0.0011,-0.0064,-0.0021,-105.31,73.81,62.94,62.57,-15.87,4.5,1036.38,55.857,303002,2016-03-14 10:02:57:494
-0.7688,2.6609,9.4484,-0.74,2.67,9.41,0.03,0.06,0.32,0.0021,-0.0085,-0.0011,-105.69,74.19,61.31,62.56,-15.79,4.5,1036.34,58.021,303502,2016-03-14 10:02:57:994
-0.8191,2.8141,9.6855,-0.76,2.67,9.4,-0.07,0.07,0.28,0.0075,-0.0032,-0.0011,-104.94,75.25,60.94,61.88,-15.79,4.56,1036.35,54.24,304003,2016-03-14 10:02:58:495
-0.6874,2.6968,9.4316,-0.76,2.66,9.41,0.06,0.01,-0.13,-0.0053,0.0128,-0.0032,-105.69,73.81,61.75,62.61,-15.74,4.62,1036.36,56.99,304502,2016-03-14 10:02:58:994
-0.7472,2.8261,9.5418,-0.77,2.67,9.4,-0.28,-0.01,0.02,-0.0053,-0.0096,0.0,-104.94,74.19,61.31,62.32,-15.81,4.56,1036.36,59.168,305003,2016-03-14 10:02:59:495
-0.8502,2.7279,9.4699,-0.74,2.65,9.41,-0.05,-0.02,0.22,0.017,-0.0298,-0.0011,-104.94,73.81,60.5,62.24,-15.68,4.5,1036.34,58.294,305502,2016-03-14 10:02:59:994
-0.8023,2.7567,9.6232,-0.71,2.67,9.41,-0.04,0.08,0.33,-0.0011,-0.0096,0.0,-105.31,73.06,61.31,62.76,-15.8,4.31,1036.31,58.098,306003,2016-03-14 10:03:00:495
-0.6778,2.716,9.513,-0.72,2.67,9.41,-0.01,-0.03,-0.19,0.0011,0.0,0.0011,-105.31,73.44,62.13,62.86,-15.8,4.38,1036.34,56.099,306502,2016-03-14 10:03:00:994
-0.7137,2.704,9.3478,-0.73,2.68,9.41,-0.02,0.0,-0.17,0.0021,0.0064,0.0043,-104.56,72.75,60.13,62.69,-15.85,4.38,1036.31,57.072,307003,2016-03-14 10:03:01:495
-1.0035,2.6537,9.149,-0.76,2.68,9.4,-0.17,-0.03,-0.24,0.0021,0.0096,0.0085,-104.94,72.75,60.5,62.79,-15.87,4.56,1036.31,56.572,307503,2016-03-14 10:03:01:995
-1.1041,2.7112,9.4915,-0.81,2.7,9.39,-0.25,-0.01,0.11,0.0,0.0075,0.0181,-105.31,73.44,61.69,62.96,-15.99,4.87,1036.3,56.376,308002,2016-03-14 10:03:02:494
-1.0011,2.6297,9.6567,-0.85,2.71,9.39,-0.18,-0.05,0.23,0.0053,0.0107,0.0288,-104.56,73.81,61.69,62.88,-16.04,5.11,1036.3,54.132,308502,2016-03-14 10:03:02:994
-0.9796,2.7255,9.7094,-0.89,2.72,9.38,-0.2,0.02,0.34,-0.0032,0.016,0.0309,-103.87,72.75,61.31,62.67,-16.11,5.24,1036.28,59.481,309004,2016-03-14 10:03:03:496
-0.9532,2.716,9.4484,-0.92,2.71,9.38,-0.1,-0.12,-0.12,-0.0011,0.0117,0.0373,-103.87,72.38,61.31,63.04,-16.04,5.6,1036.27,58.328,309502,2016-03-14 10:03:03:994
-1.0179,2.6058,9.034,-0.93,2.72,9.38,-0.05,-0.08,-0.24,-0.0032,0.0128,0.0426,-103.5,72.38,59.69,62.72,-16.1,5.66,1036.26,55.636,310002,2016-03-14 10:03:04:494
-1.0825,2.7064,9.3262,-0.97,2.72,9.37,-0.14,-0.01,0.07,-0.0032,0.0085,0.049,-103.12,71.63,60.88,62.86,-16.16,5.85,1036.25,58.397,310502,2016-03-14 10:03:04:994
-1.073,2.7423,9.4867,-1.0,2.74,9.36,-0.06,-0.01,0.13,-0.0011,0.0096,0.0565,-103.12,72.0,60.88,62.83,-16.16,6.09,1036.15,57.377,311002,2016-03-14 10:03:05:494
-1.0035,2.771,9.4531,-1.02,2.74,9.36,0.03,0.01,0.21,0.0011,0.0128,0.0629,-103.5,72.0,62.13,62.94,-16.17,6.22,1036.04,56.63,311502,2016-03-14 10:03:05:994
-1.1161,2.6992,9.6256,-1.04,2.74,9.36,-0.12,-0.07,0.08,0.0,0.0213,0.0682,-101.69,71.63,62.13,62.72,-16.22,6.28,1036.04,55.05,312002,2016-03-14 10:03:06:494
-1.1688,2.6872,9.5513,-1.05,2.75,9.35,0.02,-0.12,0.36,-0.0107,0.0288,0.0714,-101.69,70.88,62.13,63.22,-16.29,6.41,1036.1,54.953,312503,2016-03-14 10:03:06:995
-1.0346,2.6728,9.6615,-1.04,2.73,9.36,0.03,-0.2,0.1,-0.0096,0.0288,0.0756,-100.94,71.63,62.13,62.4,-16.17,6.34,1036.02,56.626,313003,2016-03-14 10:03:07:495
-1.1352,2.6489,9.4723,-1.06,2.7,9.37,-0.08,-0.13,-0.07,0.0245,-0.0085,0.0799,-99.5,71.25,61.69,62.07,-15.86,6.64,1036.06,58.869,313502,2016-03-14 10:03:07:994
-1.0346,2.5627,9.0532,-1.05,2.76,9.35,0.01,-0.2,-0.3,0.0,0.0128,0.0799,-98.75,71.25,62.5,62.52,-16.29,6.53,1036.1,62.83,314003,2016-03-14 10:03:08:495
-1.0897,2.6441,9.4436,-1.06,2.75,9.35,-0.09,-0.07,0.04,0.0096,0.0224,0.0852,-98.75,70.56,62.13,62.37,-16.23,6.53,1036.15,60.473,314502,2016-03-14 10:03:08:994
-1.0849,2.7567,9.4316,-1.03,2.81,9.34,-0.04,-0.05,0.19,-0.0245,0.0256,0.081,-98.37,71.25,62.13,62.49,-16.72,6.36,1036.09,59.834,315002,2016-03-14 10:03:09:494
-1.1161,2.6657,9.5106,-1.08,2.71,9.36,-0.02,-0.1,0.03,0.0,0.016,0.0863,-96.94,70.56,62.5,61.77,-16.05,6.58,1036.17,56.786,315503,2016-03-14 10:03:09:995
-1.2119,2.5555,9.3214,-1.09,2.7,9.36,-0.16,-0.1,0.08,-0.0011,0.0234,0.0895,-96.19,69.81,62.5,61.91,-15.99,6.64,1036.13,57.093,316002,2016-03-14 10:03:10:494
-1.1568,2.6393,9.3981,-1.11,2.71,9.36,-0.06,-0.05,0.13,-0.0064,0.0288,0.0948,-95.81,68.69,62.94,62.38,-15.98,6.76,1036.08,57.643,316503,2016-03-14 10:03:10:995
-1.1496,2.68,9.6352,-1.12,2.72,9.36,-0.03,-0.05,0.27,-0.0011,0.0309,0.0969,-95.81,67.63,62.5,62.92,-16.04,6.76,1036.05,55.177,317003,2016-03-14 10:03:11:495
-1.1352,2.6369,9.3214,-1.11,2.72,9.36,-0.06,-0.13,-0.1,-0.0064,0.0224,0.0959,-95.12,67.63,62.88,62.68,-16.09,6.82,1036.09,56.75,317503,2016-03-14 10:03:11:995
-1.2071,2.5004,9.628,-1.12,2.72,9.36,0.04,-0.18,0.26,-0.0021,0.0288,0.098,-94.37,67.63,63.69,62.5,-16.09,6.82,1036.12,57.421,318003,2016-03-14 10:03:12:495
-1.1424,2.3016,9.5992,-1.12,2.65,9.38,-0.04,-0.36,0.24,-0.0075,0.0202,0.098,-94.0,64.69,63.31,63.79,-15.8,6.82,1036.21,56.683,318503,2016-03-14 10:03:12:995
-0.879,2.3423,9.7621,-1.07,2.58,9.4,0.1,-0.31,0.19,0.0043,0.0192,0.0927,-93.31,64.69,63.31,62.99,-15.25,6.49,1036.28,58.83,319003,2016-03-14 10:03:13:495
-0.7472,2.6728,9.3334,-0.97,2.6,9.4,0.2,0.05,-0.25,-0.0064,0.033,0.0746,-93.62,64.0,64.13,64.0,-15.31,6.01,1036.22,58.422,319503,2016-03-14 10:03:13:995
-1.0275,2.601,9.4148,-0.97,2.63,9.4,-0.07,-0.04,-0.01,-0.0032,0.0224,0.0724,-93.31,64.69,65.69,64.18,-15.5,5.83,1036.22,56.601,320002,2016-03-14 10:03:14:494
-1.0227,2.6441,9.4028,-0.97,2.64,9.39,-0.06,0.05,0.43,-0.0064,0.0181,0.0724,-94.0,63.25,65.69,65.03,-15.62,5.9,1036.1,57.875,320503,2016-03-14 10:03:14:995
-0.9867,2.7231,9.5729,-0.97,2.66,9.39,0.06,0.04,0.25,-0.0032,0.0213,0.0735,-93.62,63.25,65.69,65.12,-15.74,5.9,1036.19,57.777,321002,2016-03-14 10:03:15:494
-1.0107,2.7231,9.5561,-0.97,2.68,9.38,0.02,0.02,-0.04,-0.0011,0.0224,0.0735,-93.31,62.5,63.69,64.72,-15.87,5.9,1036.18,55.009,321503,2016-03-14 10:03:15:995
-0.9772,2.5986,9.2735,-0.97,2.69,9.38,0.04,-0.03,-0.03,0.0011,0.0266,0.0714,-93.62,62.5,64.5,65.16,-15.92,5.9,1036.21,55.245,322002,2016-03-14 10:03:16:494
-0.9844,2.6058,9.2639,-0.97,2.7,9.38,-0.02,-0.05,0.03,-0.0043,0.0213,0.0714,-93.62,61.81,64.88,65.73,-15.98,5.9,1036.22,55.521,322503,2016-03-14 10:03:16:995
-1.0586,2.7471,9.5921,-0.99,2.71,9.37,-0.04,0.03,0.25,0.0,0.0107,0.0724,-93.31,60.69,64.94,66.05,-16.05,6.03,1036.23,56.506,323002,2016-03-14 10:03:17:494
-1.0442,2.7255,9.5274,-0.98,2.72,9.37,-0.04,-0.02,0.04,-0.0032,0.016,0.0724,-92.94,60.0,66.5,66.9,-16.1,5.97,1036.21,57.415,323502,2016-03-14 10:03:17:994
-0.9508,2.7351,9.4771,-0.97,2.71,9.37,0.07,-0.02,0.05,-0.0064,0.0064,0.0703,-93.62,60.38,65.31,66.85,-16.05,5.97,1036.23,55.86,324002,2016-03-14 10:03:18:494
-0.8981,2.7399,9.4675,-0.94,2.72,9.37,0.09,-0.02,-0.04,-0.0021,0.0181,0.0575,-93.31,59.25,64.5,67.21,-16.11,5.73,1036.25,55.684,324502,2016-03-14 10:03:18:994
-0.8311,2.7519,9.5489,-0.9,2.73,9.38,0.09,-0.03,0.0,0.0011,0.0138,0.049,-92.94,58.88,65.69,67.4,-16.16,5.48,1036.23,56.706,325003,2016-03-14 10:03:19:495
-0.9532,2.6704,9.4915,-0.88,2.73,9.38,0.07,-0.01,0.11,-0.0064,0.0192,0.0437,-92.56,58.88,64.13,67.14,-16.16,5.36,1036.28,54.968,325503,2016-03-14 10:03:19:995
-1.0035,2.6657,9.5418,-0.91,2.72,9.38,-0.11,-0.05,0.15,-0.0021,0.0117,0.0447,-91.81,57.06,66.13,68.2,-16.1,5.48,1036.3,56.48,326001,2016-03-14 10:03:20:493
-0.8814,2.6824,9.4795,-0.91,2.7,9.38,0.0,-0.07,0.02,0.0085,0.0107,0.0469,-91.5,57.06,66.13,67.85,-15.99,5.54,1036.31,56.699,326503,2016-03-14 10:03:20:995
-0.867,2.6872,9.5633,-0.89,2.72,9.38,-0.04,0.0,-0.06,0.0032,0.0213,0.0437,-92.19,56.69,67.69,68.48,-16.1,5.48,1036.32,56.763,327002,2016-03-14 10:03:21:494
-0.7664,2.6681,9.4292,-0.88,2.72,9.38,0.07,0.0,0.08,-0.0043,0.0053,0.0437,-91.12,56.69,67.31,68.1,-16.1,5.36,1036.36,56.763,327503,2016-03-14 10:03:21:995
-0.8862,2.7471,9.4531,-0.85,2.72,9.38,0.04,0.0,-0.01,0.0043,0.0053,0.0383,-91.5,56.0,66.13,68.54,-16.11,5.18,1036.31,57.346,328003,2016-03-14 10:03:22:495
-0.9388,2.7303,9.446,-0.86,2.72,9.38,-0.1,-0.02,0.01,0.0011,0.0064,0.0383,-92.19,56.0,66.5,68.92,-16.11,5.24,1036.35,54.315,328503,2016-03-14 10:03:22:995
-0.7089,2.7495,9.4436,-0.81,2.72,9.39,0.1,-0.01,0.1,-0.0011,0.0032,0.0341,-92.56,56.31,68.13,69.3,-16.1,4.99,1036.39,54.59,329002,2016-03-14 10:03:23:494
-0.8694,2.7591,9.3693,-0.82,2.73,9.38,-0.03,0.01,0.19,-0.0021,0.0053,0.0309,-93.31,55.25,66.94,69.22,-16.17,5.0,1036.38,54.303,329504,2016-03-14 10:03:23:996
-0.7544,2.6824,9.4747,-0.81,2.72,9.39,-0.02,0.0,0.04,-0.0011,0.0021,0.0309,-92.94,55.63,68.13,69.3,-16.1,4.93,1036.39,54.901,330002,2016-03-14 10:03:24:494
-0.9173,2.7351,9.4603,-0.81,2.73,9.38,-0.07,-0.03,0.06,-0.0011,0.0064,0.0266,-92.94,56.0,67.31,69.22,-16.17,4.94,1036.36,57.332,330503,2016-03-14 10:03:24:995
-0.7401,2.716,9.5418,-0.8,2.72,9.39,0.06,-0.01,0.15,0.0,0.0021,0.0245,-92.94,54.88,66.94,69.72,-16.1,4.87,1036.35,55.658,331002,2016-03-14 10:03:25:494
-0.7975,2.7064,9.331,-0.78,2.72,9.39,-0.01,-0.01,-0.03,0.0,0.0107,0.0202,-92.56,54.5,66.5,69.73,-16.1,4.75,1036.36,55.586,331502,2016-03-14 10:03:25:994
-0.7065,2.6681,9.3693,-0.76,2.71,9.39,0.04,-0.04,-0.02,-0.0032,0.0021,0.017,-92.19,54.88,66.13,70.29,-16.1,4.69,1036.38,56.707,332002,2016-03-14 10:03:26:494
-0.7951,2.7183,9.5226,-0.75,2.72,9.39,-0.02,-0.02,0.01,0.0021,0.0032,0.0117,-92.19,53.81,66.94,70.07,-16.11,4.57,1036.36,56.04,332503,2016-03-14 10:03:26:995
-0.7209,2.7375,9.3813,-0.73,2.72,9.39,0.04,0.01,0.01,-0.0011,0.0,0.0053,-91.5,53.44,66.5,70.41,-16.11,4.51,1036.39,55.151,333002,2016-03-14 10:03:27:494
-0.7951,2.7279,9.4819,-0.72,2.71,9.4,-0.07,-0.01,-0.01,0.0032,-0.0011,0.0021,-91.5,54.13,66.94,69.64,-16.04,4.38,1036.39,57.617,333502,2016-03-14 10:03:27:994
-0.7616,2.6657,9.5034,-0.73,2.69,9.4,-0.02,-0.03,-0.01,0.0053,-0.0043,0.0032,-91.81,53.06,66.94,70.53,-15.98,4.44,1036.38,58.334,334002,2016-03-14 10:03:28:494
-0.7808,2.6728,9.3909,-0.72,2.7,9.4,-0.05,-0.02,0.01,0.0,0.0043,0.0043,-93.31,52.0,67.31,71.31,-15.98,4.38,1036.39,57.293,334503,2016-03-14 10:03:28:995
-0.7329,2.6465,9.4531,-0.72,2.69,9.4,0.01,-0.05,0.03,-0.0075,0.0021,0.0021,-94.0,53.06,68.5,71.25,-15.98,4.38,1036.35,57.33,335002,2016-03-14 10:03:29:494
-0.8215,2.6561,9.3669,-0.71,2.69,9.4,-0.06,0.04,0.1,0.0,-0.0011,0.0043,-93.31,54.19,68.13,70.28,-15.93,4.32,1036.36,54.893,335503,2016-03-14 10:03:29:995
-0.7305,2.6537,9.1825,-0.7,2.69,9.41,-0.01,-0.03,-0.17,-0.0011,0.0,0.0053,-93.31,54.88,66.94,69.59,-15.93,4.32,1036.39,55.856,336002,2016-03-14 10:03:30:494
-0.7281,2.7327,9.3118,-0.7,2.73,9.39,0.0,0.02,0.08,0.0,0.0021,0.0032,-92.94,54.5,65.69,69.65,-16.17,4.26,1036.38,55.256,336503,2016-03-14 10:03:30:995
-0.7472,2.7854,9.41,-0.71,2.74,9.39,0.01,-0.03,0.04,0.0107,0.0043,0.0011,-93.31,53.44,66.13,70.81,-16.22,4.32,1036.38,57.411,337002,2016-03-14 10:03:31:494
-0.6874,2.7399,9.228,-0.72,2.76,9.38,-0.03,0.05,0.15,0.0,-0.0064,0.0011,-91.81,53.44,66.13,70.7,-16.35,4.39,1036.38,55.155,337502,2016-03-14 10:03:31:994
-0.7616,2.7902,9.4388,-0.71,2.74,9.39,-0.07,0.02,0.12,0.0064,-0.0043,0.0,-91.5,53.44,65.69,70.37,-16.22,4.32,1036.36,55.888,338002,2016-03-14 10:03:32:494
-0.6826,2.795,9.3813,-0.71,2.75,9.39,-0.01,0.02,0.2,-0.0021,-0.0053,-0.0011,-92.19,53.44,66.5,71.21,-16.28,4.32,1036.36,53.933,338502,2016-03-14 10:03:32:994
-0.7209,2.7471,9.4436,-0.7,2.73,9.39,-0.02,0.03,0.06,-0.0075,-0.0043,-0.0032,-92.56,52.31,66.94,71.47,-16.17,4.32,1036.35,56.691,339002,2016-03-14 10:03:33:494
-0.7233,2.704,9.3645,-0.69,2.73,9.39,-0.01,0.01,0.1,-0.0149,-0.0075,-0.0021,-93.31,52.69,68.13,71.06,-16.17,4.2,1036.36,57.766,339502,2016-03-14 10:03:33:994
-0.7616,2.7207,9.513,-0.71,2.7,9.4,-0.04,0.01,0.25,-0.0096,-0.0085,-0.0011,-93.31,52.69,68.5,71.04,-15.98,4.26,1036.32,59.272,340002,2016-03-14 10:03:34:494
-0.8502,2.7088,9.3094,-0.71,2.69,9.4,-0.05,-0.03,-0.05,-0.0043,-0.0107,0.0021,-92.94,53.81,68.5,70.43,-15.93,4.32,1036.35,58.469,340502,2016-03-14 10:03:34:994
-0.6754,2.771,9.6471,-0.7,2.69,9.4,0.02,0.06,0.22,0.0085,-0.0011,0.0,-93.31,55.63,68.88,69.32,-15.93,4.2,1036.36,55.989,341005,2016-03-14 10:03:35:497
-0.7233,2.716,9.4268,-0.7,2.69,9.4,-0.05,0.03,-0.09,-0.0021,0.0043,-0.0011,-94.0,55.25,68.13,69.95,-15.93,4.26,1036.36,56.162,341502,2016-03-14 10:03:35:994
-0.7257,2.7016,9.4436,-0.72,2.7,9.4,0.0,0.0,0.04,0.0032,-0.0053,0.0,-93.62,55.25,66.5,69.86,-15.98,4.38,1036.35,56.252,342003,2016-03-14 10:03:36:495
-0.582,2.6728,9.537,-0.71,2.69,9.4,0.04,-0.06,-0.17,0.0053,0.016,-0.0021,-92.94,54.13,66.13,70.04,-15.98,4.38,1036.36,57.666,342502,2016-03-14 10:03:36:994
-0.7185,2.6369,9.2663,-0.7,2.69,9.4,0.08,0.07,0.3,-0.0064,0.0043,-0.0032,-92.56,53.44,66.13,70.5,-15.86,4.25,1036.4,57.416,343002,2016-03-14 10:03:37:494
-0.7281,2.6441,9.2783,-0.7,2.69,9.4,0.02,-0.04,-0.1,0.0053,0.0053,-0.0011,-92.94,53.44,68.13,70.85,-15.93,4.26,1036.36,56.395,343503,2016-03-14 10:03:37:995
-0.5772,2.6106,9.3573,-0.71,2.69,9.4,0.07,-0.06,0.08,-0.0096,0.0149,-0.0032,-92.94,54.19,66.88,70.14,-15.93,4.32,1036.35,55.756,344002,2016-03-14 10:03:38:494
-0.8622,2.8118,9.4531,-0.72,2.7,9.4,0.1,0.08,0.41,0.0053,0.0,0.0011,-92.56,54.13,67.69,70.28,-15.92,4.44,1036.32,56.632,344503,2016-03-14 10:03:38:995
-0.8526,2.8261,9.4531,-0.72,2.71,9.4,-0.12,0.12,0.06,0.0096,-0.0128,-0.0011,-93.31,54.13,67.31,69.97,-15.98,4.32,1036.34,58.463,345003,2016-03-14 10:03:39:495
-0.752,2.7183,9.4555,-0.71,2.7,9.4,0.06,0.04,0.36,0.0117,-0.0181,0.0011,-92.94,53.44,66.13,70.65,-16.04,4.32,1036.34,54.739,345502,2016-03-14 10:03:39:994
-0.5844,2.6992,9.5609,-0.71,2.71,9.4,-0.03,0.08,0.0,-0.0053,0.0107,-0.0011,-93.31,52.0,66.88,71.31,-15.98,4.32,1036.32,56.722,346002,2016-03-14 10:03:40:494
-0.7401,2.6417,9.24,-0.71,2.71,9.4,-0.12,0.07,0.21,-0.0128,0.0043,-0.0011,-93.31,53.44,68.13,70.94,-16.04,4.32,1036.32,55.886,346502,2016-03-14 10:03:40:994
-0.5173,2.5387,9.2831,-0.7,2.69,9.4,0.02,-0.06,0.19,-0.017,0.0021,-0.0021,-92.56,54.5,68.94,69.87,-15.93,4.26,1036.32,55.817,347002,2016-03-14 10:03:41:494
-0.6754,2.6992,9.6232,-0.69,2.7,9.4,-0.04,0.02,-0.02,0.0,-0.0021,-0.0021,-92.56,54.5,66.88,69.64,-15.98,4.26,1036.35,55.768,347503,2016-03-14 10:03:41:995
-0.7305,2.7854,9.5801,-0.69,2.69,9.4,-0.03,0.08,0.17,0.0032,0.0021,-0.0021,-93.31,53.81,66.5,70.15,-15.93,4.2,1036.31,56.572,348002,2016-03-14 10:03:42:494
-0.6227,2.7471,9.6016,-0.69,2.71,9.4,-0.11,0.09,0.1,0.0032,-0.0032,-0.0021,-93.31,52.69,66.13,70.61,-15.99,4.2,1036.34,56.71,348502,2016-03-14 10:03:42:994
-0.7616,2.7758,9.4579,-0.7,2.7,9.4,0.01,0.07,0.33,0.0,-0.0085,-0.0011,-93.31,53.44,66.88,70.75,-15.98,4.26,1036.34,58.131,349003,2016-03-14 10:03:43:495
-0.7568,2.7519,9.4819,-0.7,2.7,9.4,-0.02,-0.02,-0.22,0.0085,-0.0053,0.0,-92.56,53.81,65.69,70.05,-15.98,4.26,1036.31,55.813,349503,2016-03-14 10:03:43:995
-0.7544,2.8285,9.5777,-0.69,2.72,9.4,-0.05,0.06,0.1,0.0043,-0.0117,-0.0011,-92.19,51.63,65.69,71.05,-16.1,4.2,1036.31,60.422,350002,2016-03-14 10:03:44:494
-0.7017,2.613,9.1873,-0.69,2.72,9.4,-0.07,-0.1,-0.2,0.016,-0.0138,-0.0021,-92.94,53.06,68.13,70.99,-16.1,4.26,1036.32,58.127,350503,2016-03-14 10:03:44:995
-0.6754,2.6537,9.5058,-0.67,2.72,9.4,-0.06,0.11,0.36,-0.0085,0.0064,-0.0011,-92.94,54.5,67.69,69.95,-16.17,4.08,1036.34,55.021,351002,2016-03-14 10:03:45:494
-0.6826,2.6417,9.4436,-0.67,2.72,9.4,-0.04,-0.04,0.05,-0.0149,0.0043,-0.0032,-93.62,54.5,68.13,70.11,-16.1,4.08,1036.31,58.554,351503,2016-03-14 10:03:45:995
-0.6874,2.7016,9.4172,-0.66,2.72,9.4,0.03,0.01,-0.1,-0.0053,-0.0032,-0.0032,-93.62,52.69,67.69,71.21,-16.1,4.02,1036.3,56.878,352002,2016-03-14 10:03:46:494
-0.6443,2.783,9.4244,-0.66,2.72,9.4,0.05,-0.02,-0.2,0.0021,-0.0011,-0.0043,-92.94,54.19,67.31,70.3,-16.1,4.02,1036.31,57.414,352502,2016-03-14 10:03:46:994
-0.7353,2.7639,9.3933,-0.66,2.72,9.4,-0.04,0.04,0.12,-0.0032,-0.0053,-0.0053,-92.94,53.44,67.31,70.85,-16.1,4.02,1036.32,56.335,353002,2016-03-14 10:03:47:494
-0.7233,2.8453,9.7956,-0.66,2.72,9.4,-0.09,0.01,0.2,0.0021,-0.0075,0.0,-93.31,53.81,67.69,70.44,-16.1,4.02,1036.31,57.239,353502,2016-03-14 10:03:47:994
-0.6993,2.6202,9.4675,-0.67,2.71,9.4,0.01,-0.04,0.02,-0.0096,0.0064,0.0011,-93.31,54.88,67.69,69.89,-16.1,4.08,1036.31,57.927,354003,2016-03-14 10:03:48:495
-0.7329,2.6824,9.3118,-0.68,2.71,9.4,0.0,0.05,0.1,0.0,0.017,0.0,-93.31,54.5,68.13,69.84,-16.04,4.14,1036.3,57.894,354503,2016-03-14 10:03:48:995
-0.5988,2.5842,9.3118,-0.69,2.71,9.4,-0.06,0.04,0.06,-0.0032,0.0096,-0.0011,-92.94,54.19,65.31,69.96,-16.04,4.2,1036.32,58.887,355002,2016-03-14 10:03:49:494
-0.752,2.7734,9.5202,-0.7,2.7,9.4,-0.02,0.08,0.3,-0.0075,0.0032,-0.0011,-92.94,53.06,66.06,70.61,-15.98,4.26,1036.34,58.878,355502,2016-03-14 10:03:49:994
-0.7353,2.7543,9.4795,-0.67,2.7,9.4,-0.09,0.13,0.0,0.0021,-0.0224,0.0021,-92.94,54.5,66.06,70.64,-15.86,4.07,1036.31,58.719,356002,2016-03-14 10:03:50:494
-0.7233,2.8165,9.7453,-0.67,2.69,9.41,0.06,-0.02,0.01,0.0298,-0.0064,0.0011,-92.94,53.81,66.13,69.99,-15.92,4.07,1036.31,58.337,356503,2016-03-14 10:03:50:995
-0.7161,2.6609,9.3765,-0.69,2.69,9.41,-0.03,-0.04,-0.12,0.0011,0.0021,-0.0011,-93.31,52.69,67.31,70.76,-15.99,4.08,1036.31,57.527,357002,2016-03-14 10:03:51:494
-0.8359,2.7327,9.7429,-0.69,2.72,9.4,-0.02,-0.01,0.26,-0.0011,-0.0064,0.0021,-93.31,52.69,67.31,70.85,-16.1,4.2,1036.32,59.262,357503,2016-03-14 10:03:51:995
-0.6586,2.8381,9.7932,-0.66,2.71,9.4,-0.05,0.09,0.4,-0.0075,-0.0064,0.0021,-92.19,53.44,68.13,70.9,-15.99,4.08,1036.32,58.362,358002,2016-03-14 10:03:52:494
-0.7233,2.795,9.4507,-0.66,2.71,9.4,-0.09,0.0,-0.17,0.0032,0.0,0.0,-93.31,53.06,66.94,70.81,-16.04,4.02,1036.31,58.907,358502,2016-03-14 10:03:52:994
-0.8287,2.6417,9.034,-0.69,2.72,9.4,0.02,-0.11,-0.37,0.0,0.0021,0.0,-92.94,52.31,67.69,71.56,-16.1,4.2,1036.31,60.288,359003,2016-03-14 10:03:53:495
-0.843,2.7327,9.537,-0.72,2.72,9.39,0.08,0.16,0.48,0.0064,-0.0266,0.0021,-93.31,53.81,68.13,70.44,-16.11,4.38,1036.3,57.03,359502,2016-03-14 10:03:53:994
-0.6347,2.7662,10.095,-0.71,2.71,9.4,0.08,0.29,0.6,0.0192,-0.0181,0.0032,-93.31,54.5,68.5,70.6,-16.04,4.32,1036.3,58.593,360002,2016-03-14 10:03:54:494
-0.6299,2.7423,9.2975,-0.68,2.72,9.4,-0.07,0.15,-0.04,-0.0043,-0.0043,-0.0053,-93.62,53.44,66.5,71.06,-16.1,4.14,1036.31,60.223,360503,2016-03-14 10:03:54:995
-0.7329,2.8477,9.7884,-0.68,2.7,9.4,-0.02,-0.04,-0.11,0.016,0.0096,-0.0032,-92.94,54.19,67.69,70.34,-15.99,4.14,1036.32,58.909,361002,2016-03-14 10:03:55:494
-0.4646,3.0704,10.0064,-0.68,2.7,9.4,-0.14,-0.1,-0.31,0.032,-0.0341,0.0011,-92.56,53.81,66.88,70.2,-15.99,4.14,1036.35,61.566,361502,2016-03-14 10:03:55:994
-0.7377,2.6704,9.1226,-0.69,2.7,9.4,0.06,-0.08,0.07,-0.0021,-0.0256,0.0,-92.94,54.19,67.69,70.39,-16.04,4.2,1036.31,57.648,362002,2016-03-14 10:03:56:494
-0.7329,2.6633,9.4986,-0.66,2.7,9.4,-0.06,-0.02,0.13,-0.0064,0.0021,-0.0021,-93.31,53.81,67.69,70.34,-15.99,4.08,1036.3,57.868,362502,2016-03-14 10:03:56:994
-0.7113,2.783,9.3981,-0.68,2.71,9.4,-0.12,0.11,0.16,0.0011,-0.0075,-0.0032,-92.19,52.31,67.31,71.1,-15.99,4.14,1036.3,58.822,363002,2016-03-14 10:03:57:494
-0.8622,2.68,9.3549,-0.69,2.69,9.4,-0.04,-0.06,-0.05,-0.0043,0.0064,0.0,-93.31,52.31,67.31,70.75,-15.99,4.14,1036.27,57.579,363502,2016-03-14 10:03:57:994
-0.6131,2.6752,9.4747,-0.7,2.69,9.41,0.04,0.05,0.11,0.0,0.0021,0.0,-93.31,53.06,68.13,70.83,-15.91,4.19,1036.3,59.662,364002,2016-03-14 10:03:58:494
-0.6347,2.7351,9.5394,-0.68,2.68,9.41,0.14,0.04,0.14,-0.0032,-0.0053,-0.0011,-92.94,53.44,67.69,70.23,-15.86,4.13,1036.28,55.312,364502,2016-03-14 10:03:58:994
-0.7233,2.6489,9.3502,-0.66,2.68,9.41,0.1,0.04,0.09,-0.0075,0.0096,-0.0011,-93.31,53.44,68.13,70.79,-15.86,4.07,1036.3,57.225,365002,2016-03-14 10:03:59:494
-0.6658,2.6776,9.6519,-0.67,2.67,9.41,0.02,0.01,0.25,-0.0117,0.0053,-0.0011,-93.31,52.31,68.13,71.35,-15.86,4.01,1036.3,57.801,365502,2016-03-14 10:03:59:994
-0.6706,2.68,9.4747,-0.67,2.69,9.41,0.04,0.08,0.09,0.0021,-0.0053,-0.0032,-92.56,53.81,68.94,70.42,-15.92,4.07,1036.3,57.49,366003,2016-03-14 10:04:00:495
-0.6347,2.6657,9.1418,-0.67,2.69,9.41,-0.02,0.05,-0.15,0.0032,-0.0149,-0.0053,-92.19,54.19,66.88,69.92,-15.92,4.07,1036.28,56.19,366502,2016-03-14 10:04:00:994
-0.7161,2.8477,9.7908,-0.68,2.7,9.4,-0.04,0.12,0.25,0.0181,-0.0085,-0.0053,-92.19,54.19,66.13,69.83,-15.99,4.2,1036.27,57.165,367003,2016-03-14 10:04:01:495
-0.8478,2.7447,9.2807,-0.69,2.7,9.4,-0.04,-0.04,0.14,-0.0011,0.0021,-0.0043,-92.19,53.44,66.88,70.54,-15.99,4.2,1036.28,55.72,367502,2016-03-14 10:04:01:994
-0.8215,2.7375,9.7142,-0.69,2.71,9.4,-0.02,0.17,0.15,-0.0043,0.0256,-0.0043,-92.19,53.06,66.88,70.49,-15.93,4.2,1036.27,56.836,368003,2016-03-14 10:04:02:495
-0.982,2.6034,8.9885,-0.73,2.71,9.4,-0.17,0.05,-0.23,-0.0096,0.0245,0.0011,-91.5,52.69,67.69,70.5,-16.04,4.44,1036.3,59.221,368503,2016-03-14 10:04:02:995
-0.9341,2.7782,9.3454,-0.8,2.76,9.38,-0.08,0.09,-0.06,0.0043,0.0043,0.0117,-92.56,53.44,67.69,71.1,-16.23,4.81,1036.27,61.016,369002,2016-03-14 10:04:03:494
-0.9029,2.8165,9.3358,-0.84,2.76,9.37,-0.09,-0.09,0.04,-0.0043,0.0107,0.0149,-93.31,54.19,68.88,70.84,-16.41,5.06,1036.27,61.708,369503,2016-03-14 10:04:03:995
-1.4083,2.7686,9.5968,-0.94,2.77,9.36,-0.46,-0.03,0.22,0.0021,0.0096,0.0298,-92.94,55.25,67.31,69.91,-16.34,5.55,1036.3,55.264,370003,2016-03-14 10:04:04:495
-1.2526,2.6657,9.228,-1.01,2.77,9.35,-0.12,-0.13,-0.03,-0.0053,0.0096,0.0458,-91.81,53.81,67.31,70.15,-16.41,6.17,1036.3,57.036,370502,2016-03-14 10:04:04:994
-1.2622,2.6489,9.216,-1.12,2.75,9.35,-0.25,-0.08,0.01,-0.0117,0.0181,0.0533,-91.81,52.31,68.13,71.33,-16.29,6.59,1036.28,58.189,371002,2016-03-14 10:04:05:494
-1.4562,2.6896,9.2759,-1.22,2.74,9.34,-0.21,-0.07,0.11,-0.0053,0.0341,0.0607,-92.56,52.31,67.69,71.61,-16.22,7.44,1036.31,56.515,371502,2016-03-14 10:04:05:994
-1.5304,2.783,9.5873,-1.36,2.76,9.31,-0.14,0.0,0.32,0.0021,0.0213,0.0714,-92.56,51.63,69.31,71.78,-16.28,8.24,1036.3,59.52,372002,2016-03-14 10:04:06:494
-1.7029,2.7183,9.4412,-1.44,2.76,9.3,-0.17,-0.09,0.09,-0.0043,0.0277,0.0735,-92.56,52.0,68.13,71.69,-16.35,8.68,1036.28,54.424,372502,2016-03-14 10:04:06:994
-1.7555,2.6896,9.319,-1.52,2.77,9.29,-0.22,-0.11,0.05,-0.0043,0.0277,0.0756,-93.31,50.13,68.06,72.96,-16.4,9.11,1036.28,56.313,373003,2016-03-14 10:04:07:495
-1.7172,2.6776,9.1993,-1.55,2.77,9.28,-0.17,-0.1,0.06,-0.0117,0.0181,0.0788,-92.56,49.06,69.31,73.73,-16.41,9.42,1036.27,55.706,373503,2016-03-14 10:04:07:995
-1.5592,2.7471,9.3262,-1.56,2.77,9.28,0.0,-0.1,-0.03,0.0,0.0085,0.0767,-93.62,49.44,69.31,73.94,-16.4,9.54,1036.28,54.526,374003,2016-03-14 10:04:08:495
-1.4274,2.6752,9.2568,-1.54,2.79,9.28,0.06,-0.02,0.14,-0.0117,0.016,0.0703,-93.62,48.31,69.31,74.69,-16.52,9.42,1036.25,59.279,374502,2016-03-14 10:04:08:994
-1.4729,2.7255,9.216,-1.5,2.79,9.28,0.06,-0.02,0.14,-0.0075,0.0213,0.0597,-93.31,47.94,69.69,74.65,-16.53,9.18,1036.28,55.683,375002,2016-03-14 10:04:09:494
-1.2742,2.8333,9.4675,-1.46,2.81,9.28,0.27,-0.1,-0.07,0.0043,0.0202,0.0501,-94.75,49.06,69.31,74.41,-16.65,9.06,1036.25,57.03,375502,2016-03-14 10:04:09:994
-1.2334,2.7854,9.3023,-1.4,2.81,9.29,0.17,-0.02,0.01,-0.0096,0.0128,0.0415,-95.12,48.69,69.31,74.47,-16.7,8.69,1036.26,56.804,376002,2016-03-14 10:04:10:494
-1.1903,2.8836,9.4316,-1.36,2.81,9.3,0.18,-0.04,0.07,0.0085,0.0021,0.0288,-94.75,47.63,68.5,75.03,-16.66,8.39,1036.26,54.896,376502,2016-03-14 10:04:10:994
-1.2023,2.8094,9.5873,-1.25,2.79,9.32,0.24,-0.11,0.03,0.0053,0.0075,0.016,-95.12,47.25,67.31,75.24,-16.59,7.83,1036.26,56.963,377003,2016-03-14 10:04:11:495
-1.1017,2.795,9.6639,-1.21,2.79,9.32,0.11,0.05,0.09,0.0075,0.0053,0.0107,-95.5,46.5,69.31,75.48,-16.53,7.4,1036.26,57.673,377502,2016-03-14 10:04:11:994
-1.0778,2.7519,9.5082,-1.16,2.81,9.32,0.13,-0.04,-0.04,-0.0021,0.0053,0.0053,-95.5,46.5,68.88,75.87,-16.6,7.16,1036.27,57.663,378004,2016-03-14 10:04:12:496
-1.176,2.807,9.2615,-1.16,2.8,9.32,0.02,-0.08,-0.07,0.0064,-0.0107,0.0096,-95.81,47.25,70.88,76.08,-16.65,7.16,1036.27,56.185,378503,2016-03-14 10:04:12:995
-1.3723,3.1087,9.3358,-1.16,2.82,9.32,-0.19,0.19,-0.05,-0.0043,0.0021,0.0128,-94.37,46.5,68.88,75.4,-16.66,7.09,1036.27,57.898,379003,2016-03-14 10:04:13:495
-1.1328,2.8429,9.8124,-1.14,2.83,9.32,0.08,0.0,0.25,0.0075,0.0064,0.0075,-94.75,46.13,69.31,76.3,-16.77,6.97,1036.26,55.539,379503,2016-03-14 10:04:13:995
-1.231,2.8716,9.537,-1.24,2.67,9.35,0.24,0.08,0.26,0.0053,0.0138,0.0064,-95.12,46.13,68.5,75.36,-15.81,7.55,1036.26,61.448,380002,2016-03-14 10:04:14:494
-0.958,2.8668,9.9345,-1.2,2.67,9.36,-0.07,0.1,0.32,-0.0021,-0.0075,0.0117,-95.12,46.88,68.5,74.75,-15.8,7.31,1036.23,56.135,380504,2016-03-14 10:04:14:996
